Score,RT,response.x,response.y,response.leftButton,response.midButton,response.rightButton,response.clicked_name,trials.thisRepN,trials.thisTrialN,trials.thisN,trials.thisIndex,trials.ran,rule,card,corrAns,participant,session,date,expName,psychopyVersion,OS,frameRate,blocks.thisRepN,blocks.thisTrialN,blocks.thisN,blocks.thisIndex,blocks.ran,useRows
0,2856,0.446951619,0.262129706,1,0,0,four_blue_stars,0,0,0,46,1,number,images/3yellowStars.jpg,three_green_crosses,1,001,2022-06-20_16h51.14.567,Wisconsin Card Sorting Task,2022.1.2,Win32,60.10337781,,,,,,
0,4749,-0.057688986,0.22433723,1,0,0,two_yellow_triangles,0,1,1,61,1,number,images/4yellowDots.jpg,four_blue_stars,1,001,2022-06-20_16h51.14.567,Wisconsin Card Sorting Task,2022.1.2,Win32,60.10337781,,,,,,
1,5089,-0.371144312,0.243233476,1,0,0,one_red_dot,0,2,2,10,1,number,images/1redStar.jpg,one_red_dot,1,001,2022-06-20_16h51.14.567,Wisconsin Card Sorting Task,2022.1.2,Win32,60.10337781,,,,,,
1,1996,0.17462358,0.212110252,1,0,0,three_green_crosses,0,3,3,41,1,number,images/3redDots.jpg,three_green_crosses,1,001,2022-06-20_16h51.14.567,Wisconsin Card Sorting Task,2022.1.2,Win32,60.10337781,,,,,,
1,1969,0.412493761,0.239898843,1,0,0,four_blue_stars,0,4,4,51,1,number,images/4blueTriangles.jpg,four_blue_stars,1,001,2022-06-20_16h51.14.567,Wisconsin Card Sorting Task,2022.1.2,Win32,60.10337781,,,,,,
1,1853,-0.114377691,0.249902711,1,0,0,two_yellow_triangles,0,5,5,24,1,number,images/2redCrosses.jpg,two_yellow_triangles,1,001,2022-06-20_16h51.14.567,Wisconsin Card Sorting Task,2022.1.2,Win32,60.10337781,,,,,,
1,1966,0.152392604,0.231006497,1,0,0,three_green_crosses,0,6,6,43,1,number,images/3redTriangles.jpg,three_green_crosses,1,001,2022-06-20_16h51.14.567,Wisconsin Card Sorting Task,2022.1.2,Win32,60.10337781,,,,,,
,,,,,,,,,,,,,,,,1,001,2022-06-20_16h51.14.567,Wisconsin Card Sorting Task,2022.1.2,Win32,60.10337781,0,0,0,1,1,64:128
0,1750,0.362474323,0.25101425,1,0,0,four_blue_stars,0,0,0,56,1,shape,images/4redCrosses.jpg,three_green_crosses,1,001,2022-06-20_16h51.14.567,Wisconsin Card Sorting Task,2022.1.2,Win32,60.10337781,,,,,,
1,3801,-0.296670819,0.223225675,1,0,0,one_red_dot,0,1,1,57,1,shape,images/4redDots.jpg,one_red_dot,1,001,2022-06-20_16h51.14.567,Wisconsin Card Sorting Task,2022.1.2,Win32,60.10337781,,,,,,
1,2437,0.416939982,0.282137491,1,0,0,four_blue_stars,0,2,2,46,1,shape,images/3yellowStars.jpg,four_blue_stars,1,001,2022-06-20_16h51.14.567,Wisconsin Card Sorting Task,2022.1.2,Win32,60.10337781,,,,,,
1,2093,-0.344467276,0.25101425,1,0,0,one_red_dot,0,3,3,41,1,shape,images/3redDots.jpg,one_red_dot,1,001,2022-06-20_16h51.14.567,Wisconsin Card Sorting Task,2022.1.2,Win32,60.10337781,,,,,,
1,2230,0.311343361,0.229894926,1,0,0,four_blue_stars,0,4,4,34,1,shape,images/3blueStars.jpg,four_blue_stars,1,001,2022-06-20_16h51.14.567,Wisconsin Card Sorting Task,2022.1.2,Win32,60.10337781,,,,,,
1,1684,0.13127328,0.16653697,1,0,0,three_green_crosses,0,5,5,4,1,shape,images/1greenCross.jpg,three_green_crosses,1,001,2022-06-20_16h51.14.567,Wisconsin Card Sorting Task,2022.1.2,Win32,60.10337781,,,,,,
1,1865,0.329127987,0.249902711,1,0,0,four_blue_stars,0,6,6,2,1,shape,images/1blueStar.jpg,four_blue_stars,1,001,2022-06-20_16h51.14.567,Wisconsin Card Sorting Task,2022.1.2,Win32,60.10337781,,,,,,
,,,,,,,,,,,,,,,,1,001,2022-06-20_16h51.14.567,Wisconsin Card Sorting Task,2022.1.2,Win32,60.10337781,0,1,1,2,1,128:192
1,1799,-0.139943301,0.269910512,1,0,0,two_yellow_triangles,0,0,0,47,1,colour,images/3yellowTriangles.jpg,two_yellow_triangles,1,001,2022-06-20_16h51.14.567,Wisconsin Card Sorting Task,2022.1.2,Win32,60.10337781,,,,,,
0,2098,0.116823223,0.195437116,1,0,0,three_green_crosses,0,1,1,28,1,colour,images/2yellowCrosses.jpg,two_yellow_triangles,1,001,2022-06-20_16h51.14.567,Wisconsin Card Sorting Task,2022.1.2,Win32,60.10337781,,,,,,
1,2003,-0.083254596,0.182098582,1,0,0,two_yellow_triangles,0,2,2,45,1,colour,images/3yellowDots.jpg,two_yellow_triangles,1,001,2022-06-20_16h51.14.567,Wisconsin Card Sorting Task,2022.1.2,Win32,60.10337781,,,,,,
1,1681,-0.383371291,0.267687402,1,0,0,one_red_dot,0,3,3,56,1,colour,images/4redCrosses.jpg,one_red_dot,1,001,2022-06-20_16h51.14.567,Wisconsin Card Sorting Task,2022.1.2,Win32,60.10337781,,,,,,
1,1928,0.358028359,0.202106319,1,0,0,four_blue_stars,0,4,4,49,1,colour,images/4blueDots.jpg,four_blue_stars,1,001,2022-06-20_16h51.14.567,Wisconsin Card Sorting Task,2022.1.2,Win32,60.10337781,,,,,,
1,1856,-0.335574898,0.253237361,1,0,0,one_red_dot,0,5,5,57,1,colour,images/4redDots.jpg,one_red_dot,1,001,2022-06-20_16h51.14.567,Wisconsin Card Sorting Task,2022.1.2,Win32,60.10337781,,,,,,
1,2257,0.321347197,0.227671864,1,0,0,four_blue_stars,0,6,6,51,1,colour,images/4blueTriangles.jpg,four_blue_stars,1,001,2022-06-20_16h51.14.567,Wisconsin Card Sorting Task,2022.1.2,Win32,60.10337781,,,,,,
,,,,,,,,,,,,,,,,1,001,2022-06-20_16h51.14.567,Wisconsin Card Sorting Task,2022.1.2,Win32,60.10337781,0,2,2,0,1,0:64
1,2582,-0.338909532,0.202106319,1,0,0,one_red_dot,0,0,0,10,1,colour,images/1redStar.jpg,one_red_dot,1,001,2022-06-20_16h51.14.567,Wisconsin Card Sorting Task,2022.1.2,Win32,60.10337781,,,,,,
1,1782,0.17462358,0.236564209,1,0,0,three_green_crosses,0,1,1,37,1,colour,images/3greenDots.jpg,three_green_crosses,1,001,2022-06-20_16h51.14.567,Wisconsin Card Sorting Task,2022.1.2,Win32,60.10337781,,,,,,
1,2267,0.151281081,0.214333298,1,0,0,three_green_crosses,0,2,2,39,1,colour,images/3greenTriangles.jpg,three_green_crosses,1,001,2022-06-20_16h51.14.567,Wisconsin Card Sorting Task,2022.1.2,Win32,60.10337781,,,,,,
1,1880,0.388039868,0.212110252,1,0,0,four_blue_stars,0,3,3,0,1,colour,images/1blueCross.jpg,four_blue_stars,1,001,2022-06-20_16h51.14.567,Wisconsin Card Sorting Task,2022.1.2,Win32,60.10337781,,,,,,
1,1639,0.154615714,0.192102483,1,0,0,three_green_crosses,0,4,4,21,1,colour,images/2greenDots.jpg,three_green_crosses,1,001,2022-06-20_16h51.14.567,Wisconsin Card Sorting Task,2022.1.2,Win32,60.10337781,,,,,,
1,1770,0.120157856,0.226560309,1,0,0,three_green_crosses,0,5,5,54,1,colour,images/4greenStars.jpg,three_green_crosses,1,001,2022-06-20_16h51.14.567,Wisconsin Card Sorting Task,2022.1.2,Win32,60.10337781,,,,,,
1,1749,0.330239768,0.248791188,1,0,0,four_blue_stars,0,6,6,17,1,colour,images/2blueDots.jpg,four_blue_stars,1,001,2022-06-20_16h51.14.567,Wisconsin Card Sorting Task,2022.1.2,Win32,60.10337781,,,,,,
,,,,,,,,,,,,,,,,1,001,2022-06-20_16h51.14.567,Wisconsin Card Sorting Task,2022.1.2,Win32,60.10337781,1,0,3,0,1,0:64
1,1617,0.163508156,0.256571994,1,0,0,three_green_crosses,0,0,0,36,1,number,images/3greenCrosses.jpg,three_green_crosses,1,001,2022-06-20_16h51.14.567,Wisconsin Card Sorting Task,2022.1.2,Win32,60.10337781,,,,,,
0,1966,-0.282220826,0.252125822,1,0,0,one_red_dot,0,1,1,56,1,number,images/4redCrosses.jpg,four_blue_stars,1,001,2022-06-20_16h51.14.567,Wisconsin Card Sorting Task,2022.1.2,Win32,60.10337781,,,,,,
1,2531,0.076807685,0.215444885,1,0,0,three_green_crosses,0,2,2,40,1,number,images/3redCrosses.jpg,three_green_crosses,1,001,2022-06-20_16h51.14.567,Wisconsin Card Sorting Task,2022.1.2,Win32,60.10337781,,,,,,
0,1804,0.358028359,0.203217906,1,0,0,four_blue_stars,0,3,3,22,1,number,images/2greenStars.jpg,two_yellow_triangles,1,001,2022-06-20_16h51.14.567,Wisconsin Card Sorting Task,2022.1.2,Win32,60.10337781,,,,,,
1,2038,-0.353359621,0.246568078,1,0,0,one_red_dot,0,4,4,12,1,number,images/1yellowCross.jpg,one_red_dot,1,001,2022-06-20_16h51.14.567,Wisconsin Card Sorting Task,2022.1.2,Win32,60.10337781,,,,,,
1,1977,-0.048796737,0.232118037,1,0,0,two_yellow_triangles,0,5,5,24,1,number,images/2redCrosses.jpg,two_yellow_triangles,1,001,2022-06-20_16h51.14.567,Wisconsin Card Sorting Task,2022.1.2,Win32,60.10337781,,,,,,
1,1626,-0.066581428,0.223225675,1,0,0,two_yellow_triangles,0,6,6,19,1,number,images/2blueTriangles.jpg,two_yellow_triangles,1,001,2022-06-20_16h51.14.567,Wisconsin Card Sorting Task,2022.1.2,Win32,60.10337781,,,,,,
,,,,,,,,,,,,,,,,1,001,2022-06-20_16h51.14.567,Wisconsin Card Sorting Task,2022.1.2,Win32,60.10337781,1,1,4,1,1,64:128
0,1831,0.355805056,0.218779519,1,0,0,four_blue_stars,0,0,0,53,1,shape,images/4greenDots.jpg,one_red_dot,1,001,2022-06-20_16h51.14.567,Wisconsin Card Sorting Task,2022.1.2,Win32,60.10337781,,,,,,
0,3172,0.130161757,0.246568078,1,0,0,three_green_crosses,0,1,1,7,1,shape,images/1greenTriangle.jpg,two_yellow_triangles,1,001,2022-06-20_16h51.14.567,Wisconsin Card Sorting Task,2022.1.2,Win32,60.10337781,,,,,,
1,1756,0.175735039,0.208775618,1,0,0,three_green_crosses,0,2,2,44,1,shape,images/3yellowCrosses.jpg,three_green_crosses,1,001,2022-06-20_16h51.14.567,Wisconsin Card Sorting Task,2022.1.2,Win32,60.10337781,,,,,,
1,1765,-0.366698155,0.219891074,1,0,0,one_red_dot,0,3,3,9,1,shape,images/1redDot.jpg,one_red_dot,1,001,2022-06-20_16h51.14.567,Wisconsin Card Sorting Task,2022.1.2,Win32,60.10337781,,,,,,
1,3046,-0.343355753,0.258795056,1,0,0,one_red_dot,0,4,4,37,1,shape,images/3greenDots.jpg,one_red_dot,1,001,2022-06-20_16h51.14.567,Wisconsin Card Sorting Task,2022.1.2,Win32,60.10337781,,,,,,
1,1985,-0.173289572,0.213221807,1,0,0,two_yellow_triangles,0,5,5,15,1,shape,images/1yellowTriangle.jpg,two_yellow_triangles,1,001,2022-06-20_16h51.14.567,Wisconsin Card Sorting Task,2022.1.2,Win32,60.10337781,,,,,,
1,2246,0.378035903,0.222114152,1,0,0,four_blue_stars,0,6,6,10,1,shape,images/1redStar.jpg,four_blue_stars,1,001,2022-06-20_16h51.14.567,Wisconsin Card Sorting Task,2022.1.2,Win32,60.10337781,,,,,,
,,,,,,,,,,,,,,,,1,001,2022-06-20_16h51.14.567,Wisconsin Card Sorting Task,2022.1.2,Win32,60.10337781,1,2,5,2,1,128:192
