Score,RT,response.x,response.y,response.leftButton,response.midButton,response.rightButton,response.clicked_name,trials.thisRepN,trials.thisTrialN,trials.thisN,trials.thisIndex,trials.ran,rule,card,corrAns,participant,session,date,expName,psychopyVersion,OS,frameRate,blocks.thisRepN,blocks.thisTrialN,blocks.thisN,blocks.thisIndex,blocks.ran,useRows
1,4193,-0.105555556,0.16,1,0,0,two_yellow_triangles,0,0,0,28,1,colour,images/2yellowCrosses.jpg,two_yellow_triangles,im,001,2023-10-23_20h14.04.892,Wisconsin Card Sorting Task,2022.1.2,MacIntel,62.5,,,,,,
0,2581,-0.36,0.291111111,1,0,0,one_red_dot,0,1,1,14,1,colour,images/1yellowStar.jpg,two_yellow_triangles,im,001,2023-10-23_20h14.04.892,Wisconsin Card Sorting Task,2022.1.2,MacIntel,62.5,,,,,,
0,2316,-0.097777778,0.172222222,1,0,0,two_yellow_triangles,0,2,2,27,1,colour,images/2redTriangles.jpg,one_red_dot,im,001,2023-10-23_20h14.04.892,Wisconsin Card Sorting Task,2022.1.2,MacIntel,62.5,,,,,,
1,6249,0.145555556,0.243333333,1,0,0,three_green_crosses,0,3,3,6,1,colour,images/1greenStar.jpg,three_green_crosses,im,001,2023-10-23_20h14.04.892,Wisconsin Card Sorting Task,2022.1.2,MacIntel,62.5,,,,,,
0,3833,0.352222222,0.207777778,1,0,0,four_blue_stars,0,4,4,62,1,colour,images/4yellowStars.jpg,two_yellow_triangles,im,001,2023-10-23_20h14.04.892,Wisconsin Card Sorting Task,2022.1.2,MacIntel,62.5,,,,,,
1,2983,-0.087777778,0.225555556,1,0,0,two_yellow_triangles,0,5,5,29,1,colour,images/2yellowDots.jpg,two_yellow_triangles,im,001,2023-10-23_20h14.04.892,Wisconsin Card Sorting Task,2022.1.2,MacIntel,62.5,,,,,,
0,2915,0.364444444,0.266666667,1,0,0,four_blue_stars,0,6,6,54,1,colour,images/4greenStars.jpg,three_green_crosses,im,001,2023-10-23_20h14.04.892,Wisconsin Card Sorting Task,2022.1.2,MacIntel,62.5,,,,,,
,,,,,,,,,,,,,,,,im,001,2023-10-23_20h14.04.892,Wisconsin Card Sorting Task,2022.1.2,MacIntel,62.5,0,0,0,0,1,0:64
0,2660,-0.116666667,0.201111111,1,0,0,two_yellow_triangles,0,0,0,29,1,shape,images/2yellowDots.jpg,one_red_dot,im,001,2023-10-23_20h14.04.892,Wisconsin Card Sorting Task,2022.1.2,MacIntel,62.5,,,,,,
1,4182,-0.343333333,0.268888889,1,0,0,one_red_dot,0,1,1,49,1,shape,images/4blueDots.jpg,one_red_dot,im,001,2023-10-23_20h14.04.892,Wisconsin Card Sorting Task,2022.1.2,MacIntel,62.5,,,,,,
1,2766,-0.372222222,0.183333333,1,0,0,one_red_dot,0,2,2,9,1,shape,images/1redDot.jpg,one_red_dot,im,001,2023-10-23_20h14.04.892,Wisconsin Card Sorting Task,2022.1.2,MacIntel,62.5,,,,,,
1,2083,0.097777778,0.262222222,1,0,0,three_green_crosses,0,3,3,52,1,shape,images/4greenCrosses.jpg,three_green_crosses,im,001,2023-10-23_20h14.04.892,Wisconsin Card Sorting Task,2022.1.2,MacIntel,62.5,,,,,,
1,2733,0.407777778,0.251111111,1,0,0,four_blue_stars,0,4,4,2,1,shape,images/1blueStar.jpg,four_blue_stars,im,001,2023-10-23_20h14.04.892,Wisconsin Card Sorting Task,2022.1.2,MacIntel,62.5,,,,,,
1,3432,-0.064444444,0.205555556,1,0,0,two_yellow_triangles,0,5,5,7,1,shape,images/1greenTriangle.jpg,two_yellow_triangles,im,001,2023-10-23_20h14.04.892,Wisconsin Card Sorting Task,2022.1.2,MacIntel,62.5,,,,,,
1,2383,0.321111111,0.223333333,1,0,0,four_blue_stars,0,6,6,6,1,shape,images/1greenStar.jpg,four_blue_stars,im,001,2023-10-23_20h14.04.892,Wisconsin Card Sorting Task,2022.1.2,MacIntel,62.5,,,,,,
,,,,,,,,,,,,,,,,im,001,2023-10-23_20h14.04.892,Wisconsin Card Sorting Task,2022.1.2,MacIntel,62.5,0,1,1,2,1,128:192
1,2955,-0.106666667,0.195555556,1,0,0,two_yellow_triangles,0,0,0,23,1,number,images/2greenTriangles.jpg,two_yellow_triangles,im,001,2023-10-23_20h14.04.892,Wisconsin Card Sorting Task,2022.1.2,MacIntel,62.5,,,,,,
0,2315,-0.091111111,0.168888889,1,0,0,two_yellow_triangles,0,1,1,55,1,number,images/4greenTriangles.jpg,four_blue_stars,im,001,2023-10-23_20h14.04.892,Wisconsin Card Sorting Task,2022.1.2,MacIntel,62.5,,,,,,
1,3648,0.435555556,0.317777778,1,0,0,four_blue_stars,0,2,2,52,1,number,images/4greenCrosses.jpg,four_blue_stars,im,001,2023-10-23_20h14.04.892,Wisconsin Card Sorting Task,2022.1.2,MacIntel,62.5,,,,,,
1,2216,-0.055555556,0.217777778,1,0,0,two_yellow_triangles,0,3,3,28,1,number,images/2yellowCrosses.jpg,two_yellow_triangles,im,001,2023-10-23_20h14.04.892,Wisconsin Card Sorting Task,2022.1.2,MacIntel,62.5,,,,,,
1,2116,-0.096666667,0.254444444,1,0,0,two_yellow_triangles,0,4,4,21,1,number,images/2greenDots.jpg,two_yellow_triangles,im,001,2023-10-23_20h14.04.892,Wisconsin Card Sorting Task,2022.1.2,MacIntel,62.5,,,,,,
1,2233,0.337777778,0.226666667,1,0,0,four_blue_stars,0,5,5,58,1,number,images/4redStars.jpg,four_blue_stars,im,001,2023-10-23_20h14.04.892,Wisconsin Card Sorting Task,2022.1.2,MacIntel,62.5,,,,,,
1,3098,-0.088888889,0.207777778,1,0,0,two_yellow_triangles,0,6,6,31,1,number,images/2yellowTriangles.jpg,two_yellow_triangles,im,001,2023-10-23_20h14.04.892,Wisconsin Card Sorting Task,2022.1.2,MacIntel,62.5,,,,,,
,,,,,,,,,,,,,,,,im,001,2023-10-23_20h14.04.892,Wisconsin Card Sorting Task,2022.1.2,MacIntel,62.5,0,2,2,1,1,64:128
0,2385,-0.311111111,0.224444444,1,0,0,one_red_dot,0,0,0,6,1,colour,images/1greenStar.jpg,three_green_crosses,im,001,2023-10-23_20h14.04.892,Wisconsin Card Sorting Task,2022.1.2,MacIntel,62.5,,,,,,
1,9283,0.102222222,0.243333333,1,0,0,three_green_crosses,0,1,1,36,1,colour,images/3greenCrosses.jpg,three_green_crosses,im,001,2023-10-23_20h14.04.892,Wisconsin Card Sorting Task,2022.1.2,MacIntel,62.5,,,,,,
1,2517,-0.068888889,0.173333333,1,0,0,two_yellow_triangles,0,2,2,28,1,colour,images/2yellowCrosses.jpg,two_yellow_triangles,im,001,2023-10-23_20h14.04.892,Wisconsin Card Sorting Task,2022.1.2,MacIntel,62.5,,,,,,
1,2333,-0.117777778,0.231111111,1,0,0,two_yellow_triangles,0,3,3,46,1,colour,images/3yellowStars.jpg,two_yellow_triangles,im,001,2023-10-23_20h14.04.892,Wisconsin Card Sorting Task,2022.1.2,MacIntel,62.5,,,,,,
1,1966,-0.144444444,0.303333333,1,0,0,two_yellow_triangles,0,4,4,29,1,colour,images/2yellowDots.jpg,two_yellow_triangles,im,001,2023-10-23_20h14.04.892,Wisconsin Card Sorting Task,2022.1.2,MacIntel,62.5,,,,,,
1,2784,0.374444444,0.284444444,1,0,0,four_blue_stars,0,5,5,19,1,colour,images/2blueTriangles.jpg,four_blue_stars,im,001,2023-10-23_20h14.04.892,Wisconsin Card Sorting Task,2022.1.2,MacIntel,62.5,,,,,,
1,4150,0.345555556,0.231111111,1,0,0,four_blue_stars,0,6,6,17,1,colour,images/2blueDots.jpg,four_blue_stars,im,001,2023-10-23_20h14.04.892,Wisconsin Card Sorting Task,2022.1.2,MacIntel,62.5,,,,,,
,,,,,,,,,,,,,,,,im,001,2023-10-23_20h14.04.892,Wisconsin Card Sorting Task,2022.1.2,MacIntel,62.5,1,0,3,0,1,0:64
0,2195,0.084444444,0.192222222,1,0,0,three_green_crosses,0,0,0,21,1,number,images/2greenDots.jpg,two_yellow_triangles,im,001,2023-10-23_20h14.04.892,Wisconsin Card Sorting Task,2022.1.2,MacIntel,62.5,,,,,,
0,6183,-0.308888889,0.234444444,1,0,0,one_red_dot,0,1,1,43,1,number,images/3redTriangles.jpg,three_green_crosses,im,001,2023-10-23_20h14.04.892,Wisconsin Card Sorting Task,2022.1.2,MacIntel,62.5,,,,,,
1,4649,-0.316666667,0.215555556,1,0,0,one_red_dot,0,2,2,4,1,number,images/1greenCross.jpg,one_red_dot,im,001,2023-10-23_20h14.04.892,Wisconsin Card Sorting Task,2022.1.2,MacIntel,62.5,,,,,,
1,1982,-0.345555556,0.196666667,1,0,0,one_red_dot,0,3,3,10,1,number,images/1redStar.jpg,one_red_dot,im,001,2023-10-23_20h14.04.892,Wisconsin Card Sorting Task,2022.1.2,MacIntel,62.5,,,,,,
1,2415,-0.112222222,0.306666667,1,0,0,two_yellow_triangles,0,4,4,23,1,number,images/2greenTriangles.jpg,two_yellow_triangles,im,001,2023-10-23_20h14.04.892,Wisconsin Card Sorting Task,2022.1.2,MacIntel,62.5,,,,,,
1,2766,0.086666667,0.197777778,1,0,0,three_green_crosses,0,5,5,42,1,number,images/3redStars.jpg,three_green_crosses,im,001,2023-10-23_20h14.04.892,Wisconsin Card Sorting Task,2022.1.2,MacIntel,62.5,,,,,,
1,3666,0.14,0.206666667,1,0,0,three_green_crosses,0,6,6,47,1,number,images/3yellowTriangles.jpg,three_green_crosses,im,001,2023-10-23_20h14.04.892,Wisconsin Card Sorting Task,2022.1.2,MacIntel,62.5,,,,,,
,,,,,,,,,,,,,,,,im,001,2023-10-23_20h14.04.892,Wisconsin Card Sorting Task,2022.1.2,MacIntel,62.5,1,1,4,1,1,64:128
0,2395,-0.352222222,0.194444444,1,0,0,one_red_dot,0,0,0,14,1,shape,images/1yellowStar.jpg,four_blue_stars,im,001,2023-10-23_20h14.04.892,Wisconsin Card Sorting Task,2022.1.2,MacIntel,62.5,,,,,,
1,6099,-0.06,0.207777778,1,0,0,two_yellow_triangles,0,1,1,31,1,shape,images/2yellowTriangles.jpg,two_yellow_triangles,im,001,2023-10-23_20h14.04.892,Wisconsin Card Sorting Task,2022.1.2,MacIntel,62.5,,,,,,
0,3033,0.33,0.215555556,1,0,0,four_blue_stars,0,2,2,63,1,shape,images/4yellowTriangles.jpg,two_yellow_triangles,im,001,2023-10-23_20h14.04.892,Wisconsin Card Sorting Task,2022.1.2,MacIntel,62.5,,,,,,
1,2849,0.132222222,0.234444444,1,0,0,three_green_crosses,0,3,3,24,1,shape,images/2redCrosses.jpg,three_green_crosses,im,001,2023-10-23_20h14.04.892,Wisconsin Card Sorting Task,2022.1.2,MacIntel,62.5,,,,,,
1,2216,0.156666667,0.245555556,1,0,0,three_green_crosses,0,4,4,48,1,shape,images/4blueCrosses.jpg,three_green_crosses,im,001,2023-10-23_20h14.04.892,Wisconsin Card Sorting Task,2022.1.2,MacIntel,62.5,,,,,,
1,2500,0.318888889,0.206666667,1,0,0,four_blue_stars,0,5,5,22,1,shape,images/2greenStars.jpg,four_blue_stars,im,001,2023-10-23_20h14.04.892,Wisconsin Card Sorting Task,2022.1.2,MacIntel,62.5,,,,,,
1,4150,0.294444444,0.286666667,1,0,0,four_blue_stars,0,6,6,2,1,shape,images/1blueStar.jpg,four_blue_stars,im,001,2023-10-23_20h14.04.892,Wisconsin Card Sorting Task,2022.1.2,MacIntel,62.5,,,,,,
,,,,,,,,,,,,,,,,im,001,2023-10-23_20h14.04.892,Wisconsin Card Sorting Task,2022.1.2,MacIntel,62.5,1,2,5,2,1,128:192
