Score,RT,response.x,response.y,response.leftButton,response.midButton,response.rightButton,response.clicked_name,trials.thisRepN,trials.thisTrialN,trials.thisN,trials.thisIndex,trials.ran,rule,card,corrAns,participant,session,date,expName,psychopyVersion,OS,frameRate,blocks.thisRepN,blocks.thisTrialN,blocks.thisN,blocks.thisIndex,blocks.ran,useRows
1,2541,-0.337037021,0.21388888,1,0,0,one_red_dot,0,0,0,17,1,shape,images/2blueDots.jpg,one_red_dot,sam,001,2022-05-09_11h42.45.731,Wisconsin Card Sorting Task,2022.1.2,Win32,59.95922773,,,,,,
1,2164,-0.092592512,0.195370361,1,0,0,two_yellow_triangles,0,1,1,3,1,shape,images/1blueTriangle.jpg,two_yellow_triangles,sam,001,2022-05-09_11h42.45.731,Wisconsin Card Sorting Task,2022.1.2,Win32,59.95922773,,,,,,
1,2280,0.375925964,0.226851844,1,0,0,four_blue_stars,0,2,2,18,1,shape,images/2blueStars.jpg,four_blue_stars,sam,001,2022-05-09_11h42.45.731,Wisconsin Card Sorting Task,2022.1.2,Win32,59.95922773,,,,,,
1,1796,0.136111142,0.229629622,1,0,0,three_green_crosses,0,3,3,36,1,shape,images/3greenCrosses.jpg,three_green_crosses,sam,001,2022-05-09_11h42.45.731,Wisconsin Card Sorting Task,2022.1.2,Win32,59.95922773,,,,,,
1,2209,-0.306481464,0.224999992,1,0,0,one_red_dot,0,4,4,5,1,shape,images/1greenDot.jpg,one_red_dot,sam,001,2022-05-09_11h42.45.731,Wisconsin Card Sorting Task,2022.1.2,Win32,59.95922773,,,,,,
1,2127,0.152777809,0.199074065,1,0,0,three_green_crosses,0,5,5,24,1,shape,images/2redCrosses.jpg,three_green_crosses,sam,001,2022-05-09_11h42.45.731,Wisconsin Card Sorting Task,2022.1.2,Win32,59.95922773,,,,,,
1,2047,-0.345370354,0.231481473,1,0,0,one_red_dot,0,6,6,49,1,shape,images/4blueDots.jpg,one_red_dot,sam,001,2022-05-09_11h42.45.731,Wisconsin Card Sorting Task,2022.1.2,Win32,59.95922773,,,,,,
,,,,,,,,,,,,,,,,sam,001,2022-05-09_11h42.45.731,Wisconsin Card Sorting Task,2022.1.2,Win32,59.95922773,0,0,0,2,1,128:192
0,1863,0.105555585,0.206481473,1,0,0,three_green_crosses,0,0,0,32,1,colour,images/3blueCrosses.jpg,four_blue_stars,sam,001,2022-05-09_11h42.45.731,Wisconsin Card Sorting Task,2022.1.2,Win32,59.95922773,,,,,,
1,2579,-0.077777754,0.232407399,1,0,0,two_yellow_triangles,0,1,1,60,1,colour,images/4yellowCrosses.jpg,two_yellow_triangles,sam,001,2022-05-09_11h42.45.731,Wisconsin Card Sorting Task,2022.1.2,Win32,59.95922773,,,,,,
1,1680,0.428703743,0.25277777,1,0,0,four_blue_stars,0,2,2,18,1,colour,images/2blueStars.jpg,four_blue_stars,sam,001,2022-05-09_11h42.45.731,Wisconsin Card Sorting Task,2022.1.2,Win32,59.95922773,,,,,,
1,1581,0.425925965,0.232407399,1,0,0,four_blue_stars,0,3,3,35,1,colour,images/3blueTriangles.jpg,four_blue_stars,sam,001,2022-05-09_11h42.45.731,Wisconsin Card Sorting Task,2022.1.2,Win32,59.95922773,,,,,,
1,2198,-0.090740717,0.199999991,1,0,0,two_yellow_triangles,0,4,4,30,1,colour,images/2yellowStars.jpg,two_yellow_triangles,sam,001,2022-05-09_11h42.45.731,Wisconsin Card Sorting Task,2022.1.2,Win32,59.95922773,,,,,,
1,1589,0.089814844,0.187037028,1,0,0,three_green_crosses,0,5,5,55,1,colour,images/4greenTriangles.jpg,three_green_crosses,sam,001,2022-05-09_11h42.45.731,Wisconsin Card Sorting Task,2022.1.2,Win32,59.95922773,,,,,,
1,1864,0.110185215,0.198148139,1,0,0,three_green_crosses,0,6,6,6,1,colour,images/1greenStar.jpg,three_green_crosses,sam,001,2022-05-09_11h42.45.731,Wisconsin Card Sorting Task,2022.1.2,Win32,59.95922773,,,,,,
,,,,,,,,,,,,,,,,sam,001,2022-05-09_11h42.45.731,Wisconsin Card Sorting Task,2022.1.2,Win32,59.95922773,0,1,1,0,1,0:64
0,1999,-0.120370291,0.214814806,1,0,0,two_yellow_triangles,0,0,0,46,1,number,images/3yellowStars.jpg,three_green_crosses,sam,001,2022-05-09_11h42.45.731,Wisconsin Card Sorting Task,2022.1.2,Win32,59.95922773,,,,,,
1,2762,-0.368518503,0.219444436,1,0,0,one_red_dot,0,1,1,13,1,number,images/1yellowDot.jpg,one_red_dot,sam,001,2022-05-09_11h42.45.731,Wisconsin Card Sorting Task,2022.1.2,Win32,59.95922773,,,,,,
1,1736,-0.369444429,0.229629622,1,0,0,one_red_dot,0,2,2,3,1,number,images/1blueTriangle.jpg,one_red_dot,sam,001,2022-05-09_11h42.45.731,Wisconsin Card Sorting Task,2022.1.2,Win32,59.95922773,,,,,,
1,1604,-0.319444427,0.203703695,1,0,0,one_red_dot,0,3,3,1,1,number,images/1blueDot.jpg,one_red_dot,sam,001,2022-05-09_11h42.45.731,Wisconsin Card Sorting Task,2022.1.2,Win32,59.95922773,,,,,,
1,1682,-0.377777763,0.229629622,1,0,0,one_red_dot,0,4,4,0,1,number,images/1blueCross.jpg,one_red_dot,sam,001,2022-05-09_11h42.45.731,Wisconsin Card Sorting Task,2022.1.2,Win32,59.95922773,,,,,,
1,1679,-0.368518503,0.21388888,1,0,0,one_red_dot,0,5,5,8,1,number,images/1redCross.jpg,one_red_dot,sam,001,2022-05-09_11h42.45.731,Wisconsin Card Sorting Task,2022.1.2,Win32,59.95922773,,,,,,
1,1726,0.073148177,0.211111103,1,0,0,three_green_crosses,0,6,6,41,1,number,images/3redDots.jpg,three_green_crosses,sam,001,2022-05-09_11h42.45.731,Wisconsin Card Sorting Task,2022.1.2,Win32,59.95922773,,,,,,
,,,,,,,,,,,,,,,,sam,001,2022-05-09_11h42.45.731,Wisconsin Card Sorting Task,2022.1.2,Win32,59.95922773,0,2,2,1,1,64:128
0,1845,0.391666705,0.246296289,1,0,0,four_blue_stars,0,0,0,60,1,shape,images/4yellowCrosses.jpg,three_green_crosses,sam,001,2022-05-09_11h42.45.731,Wisconsin Card Sorting Task,2022.1.2,Win32,59.95922773,,,,,,
1,2713,0.108333363,0.219444436,1,0,0,three_green_crosses,0,1,1,36,1,shape,images/3greenCrosses.jpg,three_green_crosses,sam,001,2022-05-09_11h42.45.731,Wisconsin Card Sorting Task,2022.1.2,Win32,59.95922773,,,,,,
0,4066,-0.360185169,0.216666658,1,0,0,one_red_dot,0,2,2,40,1,shape,images/3redCrosses.jpg,three_green_crosses,sam,001,2022-05-09_11h42.45.731,Wisconsin Card Sorting Task,2022.1.2,Win32,59.95922773,,,,,,
0,3558,0.126851882,0.22314814,1,0,0,three_green_crosses,0,3,3,37,1,shape,images/3greenDots.jpg,one_red_dot,sam,001,2022-05-09_11h42.45.731,Wisconsin Card Sorting Task,2022.1.2,Win32,59.95922773,,,,,,
1,1806,-0.112036957,0.22777777,1,0,0,two_yellow_triangles,0,4,4,27,1,shape,images/2redTriangles.jpg,two_yellow_triangles,sam,001,2022-05-09_11h42.45.731,Wisconsin Card Sorting Task,2022.1.2,Win32,59.95922773,,,,,,
1,3063,0.175925958,0.224074066,1,0,0,three_green_crosses,0,5,5,48,1,shape,images/4blueCrosses.jpg,three_green_crosses,sam,001,2022-05-09_11h42.45.731,Wisconsin Card Sorting Task,2022.1.2,Win32,59.95922773,,,,,,
1,1941,-0.319444427,0.234259251,1,0,0,one_red_dot,0,6,6,33,1,shape,images/3blueDots.jpg,one_red_dot,sam,001,2022-05-09_11h42.45.731,Wisconsin Card Sorting Task,2022.1.2,Win32,59.95922773,,,,,,
,,,,,,,,,,,,,,,,sam,001,2022-05-09_11h42.45.731,Wisconsin Card Sorting Task,2022.1.2,Win32,59.95922773,1,0,3,2,1,128:192
0,2540,0.337963,0.211111103,1,0,0,four_blue_stars,0,0,0,34,1,number,images/3blueStars.jpg,three_green_crosses,sam,001,2022-05-09_11h42.45.731,Wisconsin Card Sorting Task,2022.1.2,Win32,59.95922773,,,,,,
1,2640,-0.399999985,0.226851844,1,0,0,one_red_dot,0,1,1,1,1,number,images/1blueDot.jpg,one_red_dot,sam,001,2022-05-09_11h42.45.731,Wisconsin Card Sorting Task,2022.1.2,Win32,59.95922773,,,,,,
1,1849,0.354629667,0.193518509,1,0,0,four_blue_stars,0,2,2,59,1,number,images/4redTriangles.jpg,four_blue_stars,sam,001,2022-05-09_11h42.45.731,Wisconsin Card Sorting Task,2022.1.2,Win32,59.95922773,,,,,,
1,2003,-0.417592579,0.235185177,1,0,0,one_red_dot,0,3,3,13,1,number,images/1yellowDot.jpg,one_red_dot,sam,001,2022-05-09_11h42.45.731,Wisconsin Card Sorting Task,2022.1.2,Win32,59.95922773,,,,,,
1,2413,0.133333364,0.230555548,1,0,0,three_green_crosses,0,4,4,43,1,number,images/3redTriangles.jpg,three_green_crosses,sam,001,2022-05-09_11h42.45.731,Wisconsin Card Sorting Task,2022.1.2,Win32,59.95922773,,,,,,
1,2004,-0.159259181,0.242592585,1,0,0,two_yellow_triangles,0,5,5,20,1,number,images/2greenCrosses.jpg,two_yellow_triangles,sam,001,2022-05-09_11h42.45.731,Wisconsin Card Sorting Task,2022.1.2,Win32,59.95922773,,,,,,
1,2179,-0.122222199,0.170370361,1,0,0,two_yellow_triangles,0,6,6,26,1,number,images/2redStars.jpg,two_yellow_triangles,sam,001,2022-05-09_11h42.45.731,Wisconsin Card Sorting Task,2022.1.2,Win32,59.95922773,,,,,,
,,,,,,,,,,,,,,,,sam,001,2022-05-09_11h42.45.731,Wisconsin Card Sorting Task,2022.1.2,Win32,59.95922773,1,1,4,1,1,64:128
1,1917,-0.362037021,0.195370361,1,0,0,one_red_dot,0,0,0,9,1,colour,images/1redDot.jpg,one_red_dot,sam,001,2022-05-09_11h42.45.731,Wisconsin Card Sorting Task,2022.1.2,Win32,59.95922773,,,,,,
0,2105,-0.125925847,0.248148141,1,0,0,two_yellow_triangles,0,1,1,18,1,colour,images/2blueStars.jpg,four_blue_stars,sam,001,2022-05-09_11h42.45.731,Wisconsin Card Sorting Task,2022.1.2,Win32,59.95922773,,,,,,
1,2762,0.377777816,0.224074066,1,0,0,four_blue_stars,0,2,2,19,1,colour,images/2blueTriangles.jpg,four_blue_stars,sam,001,2022-05-09_11h42.45.731,Wisconsin Card Sorting Task,2022.1.2,Win32,59.95922773,,,,,,
1,1627,-0.097222199,0.222222214,1,0,0,two_yellow_triangles,0,3,3,29,1,colour,images/2yellowDots.jpg,two_yellow_triangles,sam,001,2022-05-09_11h42.45.731,Wisconsin Card Sorting Task,2022.1.2,Win32,59.95922773,,,,,,
1,1729,-0.088888865,0.214814806,1,0,0,two_yellow_triangles,0,4,4,61,1,colour,images/4yellowDots.jpg,two_yellow_triangles,sam,001,2022-05-09_11h42.45.731,Wisconsin Card Sorting Task,2022.1.2,Win32,59.95922773,,,,,,
1,1723,0.085185214,0.18425925,1,0,0,three_green_crosses,0,5,5,5,1,colour,images/1greenDot.jpg,three_green_crosses,sam,001,2022-05-09_11h42.45.731,Wisconsin Card Sorting Task,2022.1.2,Win32,59.95922773,,,,,,
1,1901,0.113888919,0.200925917,1,0,0,three_green_crosses,0,6,6,22,1,colour,images/2greenStars.jpg,three_green_crosses,sam,001,2022-05-09_11h42.45.731,Wisconsin Card Sorting Task,2022.1.2,Win32,59.95922773,,,,,,
,,,,,,,,,,,,,,,,sam,001,2022-05-09_11h42.45.731,Wisconsin Card Sorting Task,2022.1.2,Win32,59.95922773,1,2,5,0,1,0:64
