cond,Hour,Minute,bottomText,match,corrAns,block.thisRepN,block.thisTrialN,block.thisN,block.thisIndex,trials.thisRepN,trials.thisTrialN,trials.thisN,trials.thisIndex,trigger_txt.started,trigger_resp.started,trigger_resp.keys,trigger_resp.rt,trigger_resp.duration,instr_txt.started,prepared_resp.started,prepared_resp.keys,prepared_resp.rt,prepared_resp.duration,prep_instr.started,prep_instr.stopped,start_indicator.started,start_indicator.stopped,use_rows,clock_digital.started,direction_txt.started,key_resp.started,clock_digital.stopped,direction_txt.stopped,key_resp.stopped,corr_var,key_resp.keys,key_resp.corr,key_resp.rt,key_resp.duration,trial_fixation.started,trial_fixation.stopped,rest_txt.started,rest_txt.stopped,end_txt.started,end_key_resp.started,end_key_resp.keys,end_key_resp.rt,end_key_resp.duration,participant,session,date,expName,psychopyVersion,frameRate
,,,,,,,,,,,,,,17.1480103,17.1480103,s,5.87073,None,,,,,,,,,,,,,,,,,,,,,,,,,,,,,,,Gianna_ZB216,1,2024-02-27_14h09.55.611,clock-master,2023.1.3,60.04790621
,,,,,,,,,,,,,,,,,,,23.0355175,23.0355175,1,2.4727689,None,,,,,,,,,,,,,,,,,,,,,,,,,,Gianna_ZB216,1,2024-02-27_14h09.55.611,clock-master,2023.1.3,60.04790621
1,8,26,右下,1,1,0,0,0,0,0,0,0,1,,,,,,,,,,,25.5287892,27.5235058,27.5235058,28.0343614,21,28.0343614,28.1223362,28.1223362,30.5158797,30.5158797,30.5158797,0,2,0,1.1021326,None,30.5158797,31.0143467,,,,,,,,Gianna_ZB216,1,2024-02-27_14h09.55.611,clock-master,2023.1.3,60.04790621
1,7,25,右下,1,1,0,0,0,0,0,1,1,2,,,,,,,,,,,,,,,29,31.0143467,31.1144208,31.1144208,33.5078007,33.5078007,33.5078007,1,1,1,1.2336551,None,33.5078007,34.0070041,,,,,,,,Gianna_ZB216,1,2024-02-27_14h09.55.611,clock-master,2023.1.3,60.04790621
2,15,22,左上,0,2,0,0,0,0,0,2,2,9,,,,,,,,,,,,,,,0,34.0070041,34.1063919,34.1063919,36.5002999,36.5002999,36.5002999,0,1,0,1.646562,None,36.5002999,36.9989956,,,,,,,,Gianna_ZB216,1,2024-02-27_14h09.55.611,clock-master,2023.1.3,60.04790621
2,17,11,左上,0,2,0,0,0,0,0,3,3,8,,,,,,,,,,,,,,,80,36.9989956,37.0989832,37.0989832,39.4920957,39.4920957,39.4920957,0,1,0,1.0289239,None,39.4920957,39.9908125,,,,,,,,Gianna_ZB216,1,2024-02-27_14h09.55.611,clock-master,2023.1.3,60.04790621
1,8,25,右下,1,1,0,0,0,0,0,4,4,5,,,,,,,,,,,,,,,90,39.9908125,40.0909809,40.0909809,42.4844936,42.4844936,42.4844936,1,1,1,1.3126074,None,42.4844936,42.9832277,,,,,,,,Gianna_ZB216,1,2024-02-27_14h09.55.611,clock-master,2023.1.3,60.04790621
2,11,39,左上,0,2,0,0,0,0,0,5,5,3,,,,,,,,,,,,,,,5,42.9832277,43.0830988,43.0830988,45.4764229,45.4764229,45.4764229,1,2,1,2.0158066,None,45.4764229,45.9754729,,,,,,,,Gianna_ZB216,1,2024-02-27_14h09.55.611,clock-master,2023.1.3,60.04790621
2,11,41,右下,0,2,0,0,0,0,0,6,6,6,,,,,,,,,,,,,,,78,45.9754729,46.0753296,46.0753296,48.4687807,48.4687807,48.4687807,1,2,1,1.2860551,None,48.4687807,48.9672797,,,,,,,,Gianna_ZB216,1,2024-02-27_14h09.55.611,clock-master,2023.1.3,60.04790621
1,14,13,右上,1,1,0,0,0,0,0,7,7,7,,,,,,,,,,,,,,,13,48.9672797,49.0670323,49.0670323,51.4609235,51.4609235,51.4609235,1,1,1,2.0922769,None,51.4609235,51.9591872,,,,,,,,Gianna_ZB216,1,2024-02-27_14h09.55.611,clock-master,2023.1.3,60.04790621
1,18,14,右上,1,1,0,0,0,0,0,8,8,0,,,,,,,,,,,,,,,65,51.9591872,52.0593857,52.0593857,54.4531307,54.4531307,54.4531307,1,1,1,0.8534145,None,54.4531307,54.9515426,,,,,,,,Gianna_ZB216,1,2024-02-27_14h09.55.611,clock-master,2023.1.3,60.04790621
2,17,49,左下,0,2,0,0,0,0,0,9,9,4,,,,,,,,,,,,,,,62,54.9515426,55.0517076,55.0517076,57.4454347,57.4454347,57.4454347,1,2,1,1.5198064,None,,,,,,,,,,Gianna_ZB216,1,2024-02-27_14h09.55.611,clock-master,2023.1.3,60.04790621
,,,,,,0,0,0,0,,,,,,,,,,,,,,,,,,,,,,,,,,,,,,,,,57.4454347,87.4001259,,,,,,Gianna_ZB216,1,2024-02-27_14h09.55.611,clock-master,2023.1.3,60.04790621
1,10,36,左下,1,1,1,0,1,0,0,0,0,4,,,,,,,,,,,87.4001259,89.3946051,89.3946051,89.9009674,1,89.9009674,89.9931466,89.9931466,92.3865614,92.3865614,92.3865614,1,1,1,1.8556215,None,92.3865614,92.8856818,,,,,,,,Gianna_ZB216,1,2024-02-27_14h09.55.611,clock-master,2023.1.3,60.04790621
1,7,19,右下,1,1,1,0,1,0,0,1,1,6,,,,,,,,,,,,,,,63,92.8856818,92.9854839,92.9854839,95.3790896,95.3790896,95.3790896,1,1,1,1.5061384,None,95.3790896,95.8775189,,,,,,,,Gianna_ZB216,1,2024-02-27_14h09.55.611,clock-master,2023.1.3,60.04790621
1,14,50,左上,1,1,1,0,1,0,0,2,2,7,,,,,,,,,,,,,,,68,95.8775189,95.9773356,95.9773356,98.371191,98.371191,98.371191,1,1,1,1.0802869,None,98.371191,98.8700181,,,,,,,,Gianna_ZB216,1,2024-02-27_14h09.55.611,clock-master,2023.1.3,60.04790621
2,19,54,右下,0,2,1,0,1,0,0,3,3,8,,,,,,,,,,,,,,,59,98.8700181,98.9697932,98.9697932,101.3633114,101.3633114,101.3633114,1,2,1,1.3734599,None,101.3633114,101.8618825,,,,,,,,Gianna_ZB216,1,2024-02-27_14h09.55.611,clock-master,2023.1.3,60.04790621
1,14,42,左下,1,1,1,0,1,0,0,4,4,9,,,,,,,,,,,,,,,36,101.8618825,101.9616763,101.9616763,104.355506,104.355506,104.355506,0,2,0,1.400858,None,104.355506,104.854312,,,,,,,,Gianna_ZB216,1,2024-02-27_14h09.55.611,clock-master,2023.1.3,60.04790621
1,7,18,右下,1,1,1,0,1,0,0,5,5,0,,,,,,,,,,,,,,,89,104.854312,104.9540811,104.9540811,107.3477109,107.3477109,107.3477109,1,1,1,2.0942778,None,107.3477109,107.8464582,,,,,,,,Gianna_ZB216,1,2024-02-27_14h09.55.611,clock-master,2023.1.3,60.04790621
2,17,12,左上,0,2,1,0,1,0,0,6,6,5,,,,,,,,,,,,,,,25,107.8464582,107.9458619,107.9458619,110.3395301,110.3395301,110.3395301,0,1,0,1.0425431,None,110.3395301,110.8381617,,,,,,,,Gianna_ZB216,1,2024-02-27_14h09.55.611,clock-master,2023.1.3,60.04790621
2,13,31,左上,0,2,1,0,1,0,0,7,7,3,,,,,,,,,,,,,,,16,110.8381617,110.9385682,110.9385682,113.331924,113.331924,113.331924,1,2,1,1.8280746,None,113.331924,113.8306733,,,,,,,,Gianna_ZB216,1,2024-02-27_14h09.55.611,clock-master,2023.1.3,60.04790621
2,17,52,右下,0,2,1,0,1,0,0,8,8,2,,,,,,,,,,,,,,,71,113.8306733,113.9305942,113.9305942,116.3239561,116.3239561,116.3239561,1,2,1,1.3428128,None,116.3239561,116.8225015,,,,,,,,Gianna_ZB216,1,2024-02-27_14h09.55.611,clock-master,2023.1.3,60.04790621
2,15,40,右下,0,2,1,0,1,0,0,9,9,1,,,,,,,,,,,,,,,15,116.8225015,116.9226144,116.9226144,119.316285,119.316285,119.316285,1,2,1,1.6045655,None,,,,,,,,,,Gianna_ZB216,1,2024-02-27_14h09.55.611,clock-master,2023.1.3,60.04790621
,,,,,,1,0,1,0,,,,,,,,,,,,,,,,,,,,,,,,,,,,,,,,,119.316285,149.2707638,,,,,,Gianna_ZB216,1,2024-02-27_14h09.55.611,clock-master,2023.1.3,60.04790621
2,11,38,左上,0,2,2,0,2,0,0,0,0,8,,,,,,,,,,,149.2707638,151.2657565,151.2657565,151.7687197,60,151.7687197,151.8644158,151.8644158,154.2579932,154.2579932,154.2579932,1,2,1,1.3669156,None,154.2579932,154.7567757,,,,,,,,Gianna_ZB216,1,2024-02-27_14h09.55.611,clock-master,2023.1.3,60.04790621
1,14,14,右上,1,1,2,0,2,0,0,1,1,9,,,,,,,,,,,,,,,47,154.7567757,154.8563923,154.8563923,157.2497011,157.2497011,157.2497011,1,1,1,1.8203143,None,157.2497011,157.7486723,,,,,,,,Gianna_ZB216,1,2024-02-27_14h09.55.611,clock-master,2023.1.3,60.04790621
2,13,56,右下,0,2,2,0,2,0,0,2,2,0,,,,,,,,,,,,,,,48,157.7486723,157.8487106,157.8487106,160.2422597,160.2422597,160.2422597,1,2,1,1.5790338,None,160.2422597,160.740689,,,,,,,,Gianna_ZB216,1,2024-02-27_14h09.55.611,clock-master,2023.1.3,60.04790621
2,10,56,右上,0,2,2,0,2,0,0,3,3,2,,,,,,,,,,,,,,,92,160.740689,160.8405947,160.8405947,163.2343599,163.2343599,163.2343599,0,1,0,1.9240651,None,163.2343599,163.7328184,,,,,,,,Gianna_ZB216,1,2024-02-27_14h09.55.611,clock-master,2023.1.3,60.04790621
1,10,35,左下,1,1,2,0,2,0,0,4,4,6,,,,,,,,,,,,,,,10,163.7328184,163.8327634,163.8327634,166.2261969,166.2261969,166.2261969,1,1,1,1.48329,None,166.2261969,166.7249646,,,,,,,,Gianna_ZB216,1,2024-02-27_14h09.55.611,clock-master,2023.1.3,60.04790621
1,10,16,右下,1,1,2,0,2,0,0,5,5,4,,,,,,,,,,,,,,,11,166.7249646,166.8251901,166.8251901,169.2188589,169.2188589,169.2188589,0,None,0,,,169.2188589,169.7174188,,,,,,,,Gianna_ZB216,1,2024-02-27_14h09.55.611,clock-master,2023.1.3,60.04790621
1,10,28,右下,1,1,2,0,2,0,0,6,6,5,,,,,,,,,,,,,,,12,169.7174188,169.8170173,169.8170173,172.2104182,172.2104182,172.2104182,1,1,1,0.9413629,None,172.2104182,172.7096163,,,,,,,,Gianna_ZB216,1,2024-02-27_14h09.55.611,clock-master,2023.1.3,60.04790621
2,11,58,右上,0,2,2,0,2,0,0,7,7,7,,,,,,,,,,,,,,,77,172.7096163,172.8093763,172.8093763,175.2029831,175.2029831,175.2029831,1,2,1,0.8587869,None,175.2029831,175.7017426,,,,,,,,Gianna_ZB216,1,2024-02-27_14h09.55.611,clock-master,2023.1.3,60.04790621
1,18,39,左下,1,1,2,0,2,0,0,8,8,1,,,,,,,,,,,,,,,56,175.7017426,175.8014735,175.8014735,178.1950747,178.1950747,178.1950747,0,None,0,,,178.1950747,178.6935134,,,,,,,,Gianna_ZB216,1,2024-02-27_14h09.55.611,clock-master,2023.1.3,60.04790621
2,17,53,右下,0,2,2,0,2,0,0,9,9,3,,,,,,,,,,,,,,,37,178.6935134,178.7937035,178.7937035,181.1870549,181.1870549,181.1870549,1,2,1,1.489,None,,,,,,,,,,Gianna_ZB216,1,2024-02-27_14h09.55.611,clock-master,2023.1.3,60.04790621
,,,,,,2,0,2,0,,,,,,,,,,,,,,,,,,,,,,,,,,,,,,,,,181.1870549,211.1420339,,,,,,Gianna_ZB216,1,2024-02-27_14h09.55.611,clock-master,2023.1.3,60.04790621
2,11,50,右上,0,2,3,0,3,0,0,0,0,4,,,,,,,,,,,211.1420339,213.1365363,213.1365363,213.640351,44,213.640351,213.7354674,213.7354674,216.1288269,216.1288269,216.1288269,1,2,1,1.162629,None,216.1288269,216.6275263,,,,,,,,Gianna_ZB216,1,2024-02-27_14h09.55.611,clock-master,2023.1.3,60.04790621
2,17,29,左下,0,2,3,0,3,0,0,1,1,6,,,,,,,,,,,,,,,41,216.6275263,216.7270481,216.7270481,219.1209695,219.1209695,219.1209695,1,2,1,1.4670199,None,219.1209695,219.6196784,,,,,,,,Gianna_ZB216,1,2024-02-27_14h09.55.611,clock-master,2023.1.3,60.04790621
1,16,23,右下,1,1,3,0,3,0,0,2,2,5,,,,,,,,,,,,,,,32,219.6196784,219.7195932,219.7195932,222.1133886,222.1133886,222.1133886,0,2,0,1.4580206,None,222.1133886,222.6115376,,,,,,,,Gianna_ZB216,1,2024-02-27_14h09.55.611,clock-master,2023.1.3,60.04790621
2,11,40,右下,0,2,3,0,3,0,0,3,3,7,,,,,,,,,,,,,,,43,222.6115376,222.7116917,222.7116917,225.1049884,225.1049884,225.1049884,1,2,1,1.2351104,None,225.1049884,225.6039519,,,,,,,,Gianna_ZB216,1,2024-02-27_14h09.55.611,clock-master,2023.1.3,60.04790621
1,16,6,右上,1,1,3,0,3,0,0,4,4,1,,,,,,,,,,,,,,,76,225.6039519,225.7035847,225.7035847,228.0974438,228.0974438,228.0974438,1,1,1,0.8311786,None,228.0974438,228.5959189,,,,,,,,Gianna_ZB216,1,2024-02-27_14h09.55.611,clock-master,2023.1.3,60.04790621
2,19,17,左上,0,2,3,0,3,0,0,5,5,9,,,,,,,,,,,,,,,18,228.5959189,228.6956599,228.6956599,231.0893429,231.0893429,231.0893429,1,2,1,1.1043922,None,231.0893429,231.5883971,,,,,,,,Gianna_ZB216,1,2024-02-27_14h09.55.611,clock-master,2023.1.3,60.04790621
2,19,55,右下,0,2,3,0,3,0,0,6,6,8,,,,,,,,,,,,,,,66,231.5883971,231.687962,231.687962,234.0819631,234.0819631,234.0819631,1,2,1,1.6942158,None,234.0819631,234.580479,,,,,,,,Gianna_ZB216,1,2024-02-27_14h09.55.611,clock-master,2023.1.3,60.04790621
1,16,36,左下,1,1,3,0,3,0,0,7,7,3,,,,,,,,,,,,,,,54,234.580479,234.6800558,234.6800558,237.0739268,237.0739268,237.0739268,1,1,1,2.0963682,None,237.0739268,237.5728066,,,,,,,,Gianna_ZB216,1,2024-02-27_14h09.55.611,clock-master,2023.1.3,60.04790621
1,16,48,左上,1,1,3,0,3,0,0,8,8,0,,,,,,,,,,,,,,,95,237.5728066,237.6720979,237.6720979,240.0659953,240.0659953,240.0659953,1,1,1,0.9605796,None,240.0659953,240.5645358,,,,,,,,Gianna_ZB216,1,2024-02-27_14h09.55.611,clock-master,2023.1.3,60.04790621
1,9,49,左下,1,1,3,0,3,0,0,9,9,2,,,,,,,,,,,,,,,70,240.5645358,240.6646866,240.6646866,243.0579793,243.0579793,243.0579793,1,1,1,1.0998341,None,,,,,,,,,,Gianna_ZB216,1,2024-02-27_14h09.55.611,clock-master,2023.1.3,60.04790621
,,,,,,3,0,3,0,,,,,,,,,,,,,,,,,,,,,,,,,,,,,,,,,243.0579793,273.0131145,,,,,,Gianna_ZB216,1,2024-02-27_14h09.55.611,clock-master,2023.1.3,60.04790621
1,18,26,右下,1,1,4,0,4,0,0,0,0,2,,,,,,,,,,,273.0131145,275.0077842,275.0077842,275.5109833,4,275.5109833,275.6059603,275.6059603,277.9996404,277.9996404,277.9996404,1,1,1,1.1967988,None,277.9996404,278.4983268,,,,,,,,Gianna_ZB216,1,2024-02-27_14h09.55.611,clock-master,2023.1.3,60.04790621
2,10,38,右上,0,2,4,0,4,0,0,1,1,1,,,,,,,,,,,,,,,73,278.4983268,278.5984096,278.5984096,280.9919616,280.9919616,280.9919616,1,2,1,1.1839156,None,280.9919616,281.4904252,,,,,,,,Gianna_ZB216,1,2024-02-27_14h09.55.611,clock-master,2023.1.3,60.04790621
2,15,23,左上,0,2,4,0,4,0,0,2,2,7,,,,,,,,,,,,,,,46,281.4904252,281.590517,281.590517,283.9841378,283.9841378,283.9841378,1,2,1,1.4596036,None,283.9841378,284.4828947,,,,,,,,Gianna_ZB216,1,2024-02-27_14h09.55.611,clock-master,2023.1.3,60.04790621
2,13,13,左下,0,2,4,0,4,0,0,3,3,6,,,,,,,,,,,,,,,2,284.4828947,284.5824278,284.5824278,286.9763158,286.9763158,286.9763158,1,2,1,0.9979974,None,286.9763158,287.4752312,,,,,,,,Gianna_ZB216,1,2024-02-27_14h09.55.611,clock-master,2023.1.3,60.04790621
1,8,55,左上,1,1,4,0,4,0,0,4,4,3,,,,,,,,,,,,,,,85,287.4752312,287.5744617,287.5744617,289.968644,289.968644,289.968644,1,1,1,1.6361701,None,289.968644,290.4672631,,,,,,,,Gianna_ZB216,1,2024-02-27_14h09.55.611,clock-master,2023.1.3,60.04790621
1,9,17,右下,1,1,4,0,4,0,0,5,5,9,,,,,,,,,,,,,,,91,290.4672631,290.5670323,290.5670323,292.960323,292.960323,292.960323,0,None,0,,,292.960323,293.4594199,,,,,,,,Gianna_ZB216,1,2024-02-27_14h09.55.611,clock-master,2023.1.3,60.04790621
2,17,34,左上,0,2,4,0,4,0,0,6,6,5,,,,,,,,,,,,,,,81,293.4594199,293.5592753,293.5592753,295.9525229,295.9525229,295.9525229,1,2,1,1.959205,None,295.9525229,296.4511485,,,,,,,,Gianna_ZB216,1,2024-02-27_14h09.55.611,clock-master,2023.1.3,60.04790621
1,10,29,右下,1,1,4,0,4,0,0,7,7,8,,,,,,,,,,,,,,,86,296.4511485,296.5512797,296.5512797,298.9448738,298.9448738,298.9448738,1,1,1,1.6409193,None,298.9448738,299.4433238,,,,,,,,Gianna_ZB216,1,2024-02-27_14h09.55.611,clock-master,2023.1.3,60.04790621
1,8,20,右下,1,1,4,0,4,0,0,8,8,0,,,,,,,,,,,,,,,35,299.4433238,299.5433731,299.5433731,301.936798,301.936798,301.936798,1,1,1,1.0942138,None,301.936798,302.4354708,,,,,,,,Gianna_ZB216,1,2024-02-27_14h09.55.611,clock-master,2023.1.3,60.04790621
2,15,10,右下,0,2,4,0,4,0,0,9,9,4,,,,,,,,,,,,,,,30,302.4354708,302.535665,302.535665,304.9289344,304.9289344,304.9289344,1,2,1,1.1765806,None,,,,,,,,,,Gianna_ZB216,1,2024-02-27_14h09.55.611,clock-master,2023.1.3,60.04790621
,,,,,,4,0,4,0,,,,,,,,,,,,,,,,,,,,,,,,,,,,,,,,,304.9289344,334.8840434,,,,,,Gianna_ZB216,1,2024-02-27_14h09.55.611,clock-master,2023.1.3,60.04790621
2,11,50,右下,0,2,5,0,5,0,0,0,0,8,,,,,,,,,,,334.8840434,336.8787214,336.8787214,337.3816418,87,337.3816418,337.4771973,337.4771973,339.8704908,339.8704908,339.8704908,1,2,1,0.9391114,None,339.8704908,340.3693418,,,,,,,,Gianna_ZB216,1,2024-02-27_14h09.55.611,clock-master,2023.1.3,60.04790621
2,15,41,右下,0,2,5,0,5,0,0,1,1,0,,,,,,,,,,,,,,,38,340.3693418,340.4694955,340.4694955,342.8629409,342.8629409,342.8629409,1,2,1,2.0172028,None,342.8629409,343.3613742,,,,,,,,Gianna_ZB216,1,2024-02-27_14h09.55.611,clock-master,2023.1.3,60.04790621
1,18,13,右上,1,1,5,0,5,0,0,2,2,9,,,,,,,,,,,,,,,64,343.3613742,343.4615275,343.4615275,345.8551871,345.8551871,345.8551871,1,1,1,0.7375441,None,345.8551871,346.3536223,,,,,,,,Gianna_ZB216,1,2024-02-27_14h09.55.611,clock-master,2023.1.3,60.04790621
2,10,37,右上,0,2,5,0,5,0,0,3,3,4,,,,,,,,,,,,,,,19,346.3536223,346.4538898,346.4538898,348.8472518,348.8472518,348.8472518,1,2,1,1.5889279,None,348.8472518,349.3457314,,,,,,,,Gianna_ZB216,1,2024-02-27_14h09.55.611,clock-master,2023.1.3,60.04790621
1,16,35,左下,1,1,5,0,5,0,0,4,4,3,,,,,,,,,,,,,,,49,349.3457314,349.4458818,349.4458818,351.8394338,351.8394338,351.8394338,0,2,0,1.9599255,None,351.8394338,352.3382142,,,,,,,,Gianna_ZB216,1,2024-02-27_14h09.55.611,clock-master,2023.1.3,60.04790621
1,8,21,右下,1,1,5,0,5,0,0,5,5,6,,,,,,,,,,,,,,,58,352.3382142,352.4375861,352.4375861,354.8315188,354.8315188,354.8315188,1,1,1,1.5444265,None,354.8315188,355.329936,,,,,,,,Gianna_ZB216,1,2024-02-27_14h09.55.611,clock-master,2023.1.3,60.04790621
2,13,20,右上,0,2,5,0,5,0,0,6,6,5,,,,,,,,,,,,,,,28,355.329936,355.4301102,355.4301102,357.8238207,357.8238207,357.8238207,1,2,1,0.7648612,None,357.8238207,358.3225977,,,,,,,,Gianna_ZB216,1,2024-02-27_14h09.55.611,clock-master,2023.1.3,60.04790621
1,14,20,右下,1,1,5,0,5,0,0,7,7,1,,,,,,,,,,,,,,,22,358.3225977,358.4223754,358.4223754,360.8159119,360.8159119,360.8159119,1,1,1,1.4014056,None,360.8159119,361.3147121,,,,,,,,Gianna_ZB216,1,2024-02-27_14h09.55.611,clock-master,2023.1.3,60.04790621
1,18,25,右下,1,1,5,0,5,0,0,8,8,7,,,,,,,,,,,,,,,79,361.3147121,361.4145417,361.4145417,363.8079957,363.8079957,363.8079957,1,1,1,0.7270137,None,363.8079957,364.3063854,,,,,,,,Gianna_ZB216,1,2024-02-27_14h09.55.611,clock-master,2023.1.3,60.04790621
2,15,51,左下,0,2,5,0,5,0,0,9,9,2,,,,,,,,,,,,,,,45,364.3063854,364.4064106,364.4064106,366.8002332,366.8002332,366.8002332,1,2,1,1.1963156,None,,,,,,,,,,Gianna_ZB216,1,2024-02-27_14h09.55.611,clock-master,2023.1.3,60.04790621
,,,,,,5,0,5,0,,,,,,,,,,,,,,,,,,,,,,,,,,,,,,,,,366.8002332,396.7545642,,,,,,Gianna_ZB216,1,2024-02-27_14h09.55.611,clock-master,2023.1.3,60.04790621
2,17,44,左上,0,2,6,0,6,0,0,0,0,0,,,,,,,,,,,396.7545642,398.7495496,398.7495496,399.2536752,67,399.2536752,399.3482612,399.3482612,401.7418164,401.7418164,401.7418164,1,2,1,1.0301352,None,401.7418164,402.24057,,,,,,,,Gianna_ZB216,1,2024-02-27_14h09.55.611,clock-master,2023.1.3,60.04790621
2,11,49,右下,0,2,6,0,6,0,0,1,1,5,,,,,,,,,,,,,,,84,402.24057,402.3401138,402.3401138,404.7335514,404.7335514,404.7335514,1,2,1,1.6138702,None,404.7335514,405.2324896,,,,,,,,Gianna_ZB216,1,2024-02-27_14h09.55.611,clock-master,2023.1.3,60.04790621
1,10,4,右上,1,1,6,0,6,0,0,2,2,9,,,,,,,,,,,,,,,69,405.2324896,405.3326515,405.3326515,407.7262017,407.7262017,407.7262017,1,1,1,0.8327267,None,407.7262017,408.2244785,,,,,,,,Gianna_ZB216,1,2024-02-27_14h09.55.611,clock-master,2023.1.3,60.04790621
1,10,3,右上,1,1,6,0,6,0,0,3,3,4,,,,,,,,,,,,,,,31,408.2244785,408.3247099,408.3247099,410.7179097,410.7179097,410.7179097,1,1,1,0.5819463,None,410.7179097,411.2170475,,,,,,,,Gianna_ZB216,1,2024-02-27_14h09.55.611,clock-master,2023.1.3,60.04790621
2,10,48,左下,0,2,6,0,6,0,0,4,4,7,,,,,,,,,,,,,,,9,411.2170475,411.3169382,411.3169382,413.7104675,413.7104675,413.7104675,1,2,1,1.5633134,None,413.7104675,414.2093428,,,,,,,,Gianna_ZB216,1,2024-02-27_14h09.55.611,clock-master,2023.1.3,60.04790621
2,19,10,左下,0,2,6,0,6,0,0,5,5,2,,,,,,,,,,,,,,,55,414.2093428,414.3088255,414.3088255,416.7027323,416.7027323,416.7027323,0,1,0,0.6880185,None,416.7027323,417.2010517,,,,,,,,Gianna_ZB216,1,2024-02-27_14h09.55.611,clock-master,2023.1.3,60.04790621
1,14,43,左下,1,1,6,0,6,0,0,6,6,8,,,,,,,,,,,,,,,20,417.2010517,417.3011674,417.3011674,419.6946574,419.6946574,419.6946574,0,2,0,1.7887281,None,419.6946574,420.193446,,,,,,,,Gianna_ZB216,1,2024-02-27_14h09.55.611,clock-master,2023.1.3,60.04790621
1,16,47,左上,1,1,6,0,6,0,0,7,7,6,,,,,,,,,,,,,,,50,420.193446,420.2929164,420.2929164,422.6868532,422.6868532,422.6868532,1,1,1,1.1302346,None,422.6868532,423.1855725,,,,,,,,Gianna_ZB216,1,2024-02-27_14h09.55.611,clock-master,2023.1.3,60.04790621
1,9,14,右上,1,1,6,0,6,0,0,8,8,3,,,,,,,,,,,,,,,39,423.1855725,423.2852251,423.2852251,425.6788435,425.6788435,425.6788435,1,1,1,1.3077152,None,425.6788435,426.1778635,,,,,,,,Gianna_ZB216,1,2024-02-27_14h09.55.611,clock-master,2023.1.3,60.04790621
2,13,57,右下,0,2,6,0,6,0,0,9,9,1,,,,,,,,,,,,,,,33,426.1778635,426.2774772,426.2774772,428.6712378,428.6712378,428.6712378,1,2,1,0.9889409,None,,,,,,,,,,Gianna_ZB216,1,2024-02-27_14h09.55.611,clock-master,2023.1.3,60.04790621
,,,,,,6,0,6,0,,,,,,,,,,,,,,,,,,,,,,,,,,,,,,,,,428.6712378,458.6261007,,,,,,Gianna_ZB216,1,2024-02-27_14h09.55.611,clock-master,2023.1.3,60.04790621
1,14,19,右下,1,1,7,0,7,0,0,0,0,7,,,,,,,,,,,458.6261007,460.6206247,460.6206247,461.1226275,53,461.1226275,461.2189173,461.2189173,463.612737,463.612737,463.612737,1,1,1,1.345121,None,463.612737,464.1115254,,,,,,,,Gianna_ZB216,1,2024-02-27_14h09.55.611,clock-master,2023.1.3,60.04790621
2,11,57,右上,0,2,7,0,7,0,0,1,1,0,,,,,,,,,,,,,,,6,464.1115254,464.2111443,464.2111443,466.6051921,466.6051921,466.6051921,1,2,1,1.5250727,None,466.6051921,467.1036737,,,,,,,,Gianna_ZB216,1,2024-02-27_14h09.55.611,clock-master,2023.1.3,60.04790621
2,13,32,左上,0,2,7,0,7,0,0,2,2,4,,,,,,,,,,,,,,,52,467.1036737,467.2034625,467.2034625,469.5970965,469.5970965,469.5970965,1,2,1,2.0622446,None,469.5970965,470.095854,,,,,,,,Gianna_ZB216,1,2024-02-27_14h09.55.611,clock-master,2023.1.3,60.04790621
2,11,49,右上,0,2,7,0,7,0,0,3,3,2,,,,,,,,,,,,,,,26,470.095854,470.1957401,470.1957401,472.589245,472.589245,472.589245,1,2,1,1.2765449,None,472.589245,473.087932,,,,,,,,Gianna_ZB216,1,2024-02-27_14h09.55.611,clock-master,2023.1.3,60.04790621
1,8,38,左下,1,1,7,0,7,0,0,4,4,5,,,,,,,,,,,,,,,83,473.087932,473.1878717,473.1878717,475.5809641,475.5809641,475.5809641,1,1,1,2.3292087,None,475.5809641,476.0802872,,,,,,,,Gianna_ZB216,1,2024-02-27_14h09.55.611,clock-master,2023.1.3,60.04790621
1,9,16,右下,1,1,7,0,7,0,0,5,5,1,,,,,,,,,,,,,,,27,476.0802872,476.1795569,476.1795569,478.5735429,478.5735429,478.5735429,1,1,1,1.874201,None,478.5735429,479.072181,,,,,,,,Gianna_ZB216,1,2024-02-27_14h09.55.611,clock-master,2023.1.3,60.04790621
1,8,56,左上,1,1,7,0,7,0,0,6,6,3,,,,,,,,,,,,,,,94,479.072181,479.1717363,479.1717363,481.5657419,481.5657419,481.5657419,0,2,0,1.2122627,None,481.5657419,482.0644338,,,,,,,,Gianna_ZB216,1,2024-02-27_14h09.55.611,clock-master,2023.1.3,60.04790621
2,19,18,左上,0,2,7,0,7,0,0,7,7,6,,,,,,,,,,,,,,,14,482.0644338,482.1643448,482.1643448,484.5577721,484.5577721,484.5577721,1,2,1,1.7132936,None,484.5577721,485.0562633,,,,,,,,Gianna_ZB216,1,2024-02-27_14h09.55.611,clock-master,2023.1.3,60.04790621
1,9,13,右上,1,1,7,0,7,0,0,8,8,8,,,,,,,,,,,,,,,7,485.0562633,485.1560772,485.1560772,487.5496447,487.5496447,487.5496447,1,1,1,1.5466573,None,487.5496447,488.0487964,,,,,,,,Gianna_ZB216,1,2024-02-27_14h09.55.611,clock-master,2023.1.3,60.04790621
2,19,11,左下,0,2,7,0,7,0,0,9,9,9,,,,,,,,,,,,,,,93,488.0487964,488.14862,488.14862,490.5423173,490.5423173,490.5423173,1,2,1,1.4071097,None,,,,,,,,,,Gianna_ZB216,1,2024-02-27_14h09.55.611,clock-master,2023.1.3,60.04790621
,,,,,,7,0,7,0,,,,,,,,,,,,,,,,,,,,,,,,,,,,,,,,,490.5423173,520.4964134,,,,,,Gianna_ZB216,1,2024-02-27_14h09.55.611,clock-master,2023.1.3,60.04790621
,,,,,,,,,,,,,,,,,,,,,,,,,,,,,,,,,,,,,,,,,,,,520.4964134,520.4964134,q,4.4362917,None,Gianna_ZB216,1,2024-02-27_14h09.55.611,clock-master,2023.1.3,60.04790621
