cond,topText,topColour,bottomText,congruent,match,corrAns,block.thisRepN,block.thisTrialN,block.thisN,block.thisIndex,trials.thisRepN,trials.thisTrialN,trials.thisN,trials.thisIndex,trigger_txt.started,trigger_resp.started,trigger_resp.keys,trigger_resp.rt,trigger_resp.duration,instr_txt.started,prepared_resp.started,prep_instr.started,prep_instr.stopped,start_indicator.started,start_indicator.stopped,use_rows,top_txt.started,bottom_txt.started,key_resp.started,top_txt.stopped,bottom_txt.stopped,key_resp.stopped,key_resp.keys,key_resp.corr,key_resp.rt,key_resp.duration,trial_fixation.started,trial_fixation.stopped,rest_txt.started,rest_txt.stopped,end_txt.started,end_key_resp.started,end_key_resp.keys,end_key_resp.rt,end_key_resp.duration,participant,session,date,expName,psychopyVersion,frameRate,
,,,,,,,,,,,,,,,17.06266150000738,17.06266150000738,s,0.5034825000329874,None,,,,,,,,,,,,,,,,,,,,,,,,,,,Gianna_ZB216,001,2024-02-27_14h22.02.975,stroop-master,2023.1.3,60.19328061020031,
4,藍,red,綠,0,0,2,0,0,0,0,0,0,0,7,,,,,,17.582519499992486,17.582519499992486,20.09266760002356,22.086953899997752,22.086953899997752,22.607188099995255,33,22.607188099995255,22.685615400027018,22.685615400027018,24.580489100015257,24.580489100015257,24.580489100015257,2,1,0.7816295999800786,None,24.580489100015257,25.07927170000039,,,,,,,,Gianna_ZB216,001,2024-02-27_14h22.02.975,stroop-master,2023.1.3,60.19328061020031,
2,綠,red,紅,0,1,1,0,0,0,0,0,1,1,6,,,,,,,,,,,,40,25.07927170000039,25.179573800007347,25.179573800007347,27.07427209999878,27.07427209999878,27.07427209999878,1,1,0.762255500012543,None,27.07427209999878,27.57255929999519,,,,,,,,Gianna_ZB216,001,2024-02-27_14h22.02.975,stroop-master,2023.1.3,60.19328061020031,
2,黃,red,紅,0,1,1,0,0,0,0,0,2,2,11,,,,,,,,,,,,13,27.57255929999519,27.672481600020546,27.672481600020546,29.567796999996062,29.567796999996062,29.567796999996062,1,1,0.696142399974633,None,29.567796999996062,30.066193000006024,,,,,,,,Gianna_ZB216,001,2024-02-27_14h22.02.975,stroop-master,2023.1.3,60.19328061020031,
4,綠,red,藍,0,0,2,0,0,0,0,0,3,3,3,,,,,,,,,,,,55,30.066193000006024,30.16600650001783,30.16600650001783,32.06121220003115,32.06121220003115,32.06121220003115,2,1,0.9285608999780379,None,32.06121220003115,32.55961589998333,,,,,,,,Gianna_ZB216,001,2024-02-27_14h22.02.975,stroop-master,2023.1.3,60.19328061020031,
2,綠,blue,藍,0,1,1,0,0,0,0,0,4,4,9,,,,,,,,,,,,7,32.55961589998333,32.659620799997356,32.659620799997356,34.55463209998561,34.55463209998561,34.55463209998561,1,1,1.5162475000252016,None,34.55463209998561,35.053282500011846,,,,,,,,Gianna_ZB216,001,2024-02-27_14h22.02.975,stroop-master,2023.1.3,60.19328061020031,
4,藍,red,藍,0,0,2,0,0,0,0,0,5,5,8,,,,,,,,,,,,45,35.053282500011846,35.15336300001945,35.15336300001945,37.04835420002928,37.04835420002928,37.04835420002928,2,1,0.8873049999820068,None,37.04835420002928,37.54699110001093,,,,,,,,Gianna_ZB216,001,2024-02-27_14h22.02.975,stroop-master,2023.1.3,60.19328061020031,
2,藍,red,紅,0,1,1,0,0,0,0,0,6,6,4,,,,,,,,,,,,13,37.54699110001093,37.646338400023524,37.646338400023524,39.54132630000822,39.54132630000822,39.54132630000822,1,1,0.7517271999968216,None,39.54132630000822,40.03999720001593,,,,,,,,Gianna_ZB216,001,2024-02-27_14h22.02.975,stroop-master,2023.1.3,60.19328061020031,
2,黃,blue,藍,0,1,1,0,0,0,0,0,7,7,10,,,,,,,,,,,,39,40.03999720001593,40.140092900022864,40.140092900022864,42.03514739999082,42.03514739999082,42.03514739999082,1,1,1.0080806000041775,None,42.03514739999082,42.533431600022595,,,,,,,,Gianna_ZB216,001,2024-02-27_14h22.02.975,stroop-master,2023.1.3,60.19328061020031,
2,綠,red,紅,0,1,1,0,0,0,0,0,8,8,2,,,,,,,,,,,,37,42.533431600022595,42.633562200004235,42.633562200004235,44.528246800007764,44.528246800007764,44.528246800007764,1,1,1.1354975000140257,None,44.528246800007764,45.0272580999881,,,,,,,,Gianna_ZB216,001,2024-02-27_14h22.02.975,stroop-master,2023.1.3,60.19328061020031,
4,紅,yellow,綠,0,0,2,0,0,0,0,0,9,9,0,,,,,,,,,,,,14,45.0272580999881,45.12665769999148,45.12665769999148,47.021624899993185,47.021624899993185,47.021624899993185,2,1,0.9328442999976687,None,47.021624899993185,47.52061760000652,,,,,,,,Gianna_ZB216,001,2024-02-27_14h22.02.975,stroop-master,2023.1.3,60.19328061020031,
4,藍,green,黃,0,0,2,0,0,0,0,0,10,10,5,,,,,,,,,,,,11,47.52061760000652,47.62048769998364,47.62048769998364,49.515287499991246,49.515287499991246,49.515287499991246,2,1,1.3788200999842957,None,49.515287499991246,50.01388159999624,,,,,,,,Gianna_ZB216,001,2024-02-27_14h22.02.975,stroop-master,2023.1.3,60.19328061020031,
4,藍,yellow,紅,0,0,2,0,0,0,0,0,11,11,1,,,,,,,,,,,,10,50.01388159999624,50.11396719998447,50.11396719998447,52.00900369998999,52.00900369998999,52.00900369998999,2,1,1.179850299959071,None,,,,,,,,,,Gianna_ZB216,001,2024-02-27_14h22.02.975,stroop-master,2023.1.3,60.19328061020031,
,,,,,,,0,0,0,0,,,,,,,,,,,,,,,,,,,,,,,,,,,,,52.00900369998999,81.96382529998664,,,,,,Gianna_ZB216,001,2024-02-27_14h22.02.975,stroop-master,2023.1.3,60.19328061020031,
1,藍,blue,藍,1,1,1,1,0,1,0,0,0,0,1,,,,,,,,81.96382529998664,83.958367299987,83.958367299987,84.47624410002027,3,84.47624410002027,84.55683690001024,84.55683690001024,86.45183730003191,86.45183730003191,86.45183730003191,1,1,0.9779016000102274,None,86.45183730003191,86.95016160001978,,,,,,,,Gianna_ZB216,001,2024-02-27_14h22.02.975,stroop-master,2023.1.3,60.19328061020031,
1,藍,blue,藍,1,1,1,1,0,1,0,0,1,1,3,,,,,,,,,,,,1,86.95016160001978,87.05030190001708,87.05030190001708,88.94531500001904,88.94531500001904,88.94531500001904,1,1,0.7529394000303,None,88.94531500001904,89.44396589999087,,,,,,,,Gianna_ZB216,001,2024-02-27_14h22.02.975,stroop-master,2023.1.3,60.19328061020031,
1,綠,green,綠,1,1,1,1,0,1,0,0,2,2,7,,,,,,,,,,,,25,89.44396589999087,89.5437689999817,89.5437689999817,91.43856300000334,91.43856300000334,91.43856300000334,1,1,0.9169300000066869,None,91.43856300000334,91.93710760003887,,,,,,,,Gianna_ZB216,001,2024-02-27_14h22.02.975,stroop-master,2023.1.3,60.19328061020031,
1,綠,green,綠,1,1,1,1,0,1,0,0,3,3,0,,,,,,,,,,,,1,91.93710760003887,92.03715739998734,92.03715739998734,93.93202340003336,93.93202340003336,93.93202340003336,1,1,0.5812490000389516,None,93.93202340003336,94.43072830000892,,,,,,,,Gianna_ZB216,001,2024-02-27_14h22.02.975,stroop-master,2023.1.3,60.19328061020031,
3,紅,red,藍,1,0,2,1,0,1,0,0,4,4,8,,,,,,,,,,,,24,94.43072830000892,94.53067970002303,94.53067970002303,96.42536049999762,96.42536049999762,96.42536049999762,2,1,1.4244871999835595,None,96.42536049999762,96.92433629999869,,,,,,,,Gianna_ZB216,001,2024-02-27_14h22.02.975,stroop-master,2023.1.3,60.19328061020031,
3,黃,yellow,紅,1,0,2,1,0,1,0,0,5,5,6,,,,,,,,,,,,24,96.92433629999869,97.02373549999902,97.02373549999902,98.91866830002982,98.91866830002982,98.91866830002982,2,1,1.8014222999918275,None,98.91866830002982,99.41742680000607,,,,,,,,Gianna_ZB216,001,2024-02-27_14h22.02.975,stroop-master,2023.1.3,60.19328061020031,
1,藍,blue,藍,1,1,1,1,0,1,0,0,6,6,10,,,,,,,,,,,,22,99.41742680000607,99.51754269999219,99.51754269999219,101.41262620000634,101.41262620000634,101.41262620000634,1,1,0.6980700999847613,None,101.41262620000634,101.91104510001605,,,,,,,,Gianna_ZB216,001,2024-02-27_14h22.02.975,stroop-master,2023.1.3,60.19328061020031,
1,綠,green,綠,1,1,1,1,0,1,0,0,7,7,11,,,,,,,,,,,,3,101.91104510001605,102.01117369998246,102.01117369998246,103.90568640001584,103.90568640001584,103.90568640001584,1,1,0.8601585999713279,None,103.90568640001584,104.40450010000495,,,,,,,,Gianna_ZB216,001,2024-02-27_14h22.02.975,stroop-master,2023.1.3,60.19328061020031,
3,藍,blue,綠,1,0,2,1,0,1,0,0,8,8,9,,,,,,,,,,,,16,104.40450010000495,104.50413960003061,104.50413960003061,106.39924420003081,106.39924420003081,106.39924420003081,2,1,1.4191425999742933,None,106.39924420003081,106.89816749998135,,,,,,,,Gianna_ZB216,001,2024-02-27_14h22.02.975,stroop-master,2023.1.3,60.19328061020031,
3,黃,yellow,綠,1,0,2,1,0,1,0,0,9,9,4,,,,,,,,,,,,21,106.89816749998135,106.99764840002172,106.99764840002172,108.89298130001407,108.89298130001407,108.89298130001407,2,1,1.6953451999579556,None,108.89298130001407,109.39136950002285,,,,,,,,Gianna_ZB216,001,2024-02-27_14h22.02.975,stroop-master,2023.1.3,60.19328061020031,
3,黃,yellow,綠,1,0,2,1,0,1,0,0,10,10,5,,,,,,,,,,,,1,109.39136950002285,109.49122050002916,109.49122050002916,111.38638470001752,111.38638470001752,111.38638470001752,2,1,0.929862699995283,None,111.38638470001752,111.88478810002562,,,,,,,,Gianna_ZB216,001,2024-02-27_14h22.02.975,stroop-master,2023.1.3,60.19328061020031,
3,綠,green,紅,1,0,2,1,0,1,0,0,11,11,2,,,,,,,,,,,,3,111.88478810002562,111.98467370000435,111.98467370000435,113.87994200002868,113.87994200002868,113.87994200002868,2,1,1.410941999987699,None,,,,,,,,,,Gianna_ZB216,001,2024-02-27_14h22.02.975,stroop-master,2023.1.3,60.19328061020031,
,,,,,,,1,0,1,0,,,,,,,,,,,,,,,,,,,,,,,,,,,,,113.87994200002868,143.83430430002045,,,,,,Gianna_ZB216,001,2024-02-27_14h22.02.975,stroop-master,2023.1.3,60.19328061020031,
3,藍,blue,黃,1,0,2,2,0,2,0,0,0,0,1,,,,,,,,143.83430430002045,145.82913520000875,145.82913520000875,146.344249900023,25,146.344249900023,146.42775780003285,146.42775780003285,148.3228632999817,148.3228632999817,148.3228632999817,2,1,1.3477573999552988,None,148.3228632999817,148.82154989999253,,,,,,,,Gianna_ZB216,001,2024-02-27_14h22.02.975,stroop-master,2023.1.3,60.19328061020031,
3,紅,red,黃,1,0,2,2,0,2,0,0,1,1,5,,,,,,,,,,,,20,148.82154989999253,148.9211731000105,148.9211731000105,150.8162637000205,150.8162637000205,150.8162637000205,2,1,1.2410274000139907,None,150.8162637000205,151.31458599999314,,,,,,,,Gianna_ZB216,001,2024-02-27_14h22.02.975,stroop-master,2023.1.3,60.19328061020031,
1,綠,green,綠,1,1,1,2,0,2,0,0,2,2,6,,,,,,,,,,,,3,151.31458599999314,151.41477119998308,151.41477119998308,153.30976750003174,153.30976750003174,153.30976750003174,1,1,0.7139932000427507,None,153.30976750003174,153.80845409998437,,,,,,,,Gianna_ZB216,001,2024-02-27_14h22.02.975,stroop-master,2023.1.3,60.19328061020031,
1,藍,blue,藍,1,1,1,2,0,2,0,0,3,3,8,,,,,,,,,,,,22,153.80845409998437,153.9085172000341,153.9085172000341,155.8029806999839,155.8029806999839,155.8029806999839,1,1,0.9501290999469347,None,155.8029806999839,156.30195350002032,,,,,,,,Gianna_ZB216,001,2024-02-27_14h22.02.975,stroop-master,2023.1.3,60.19328061020031,
3,綠,green,紅,1,0,2,2,0,2,0,0,4,4,0,,,,,,,,,,,,1,156.30195350002032,156.40174020000268,156.40174020000268,158.29658000002382,158.29658000002382,158.29658000002382,2,1,1.5014595999964513,None,158.29658000002382,158.79497729998548,,,,,,,,Gianna_ZB216,001,2024-02-27_14h22.02.975,stroop-master,2023.1.3,60.19328061020031,
1,藍,blue,藍,1,1,1,2,0,2,0,0,5,5,4,,,,,,,,,,,,17,158.79497729998548,158.89498360001016,158.89498360001016,160.78975699999137,160.78975699999137,160.78975699999137,1,1,0.7788561999914236,None,160.78975699999137,161.2884369000094,,,,,,,,Gianna_ZB216,001,2024-02-27_14h22.02.975,stroop-master,2023.1.3,60.19328061020031,
1,黃,yellow,黃,1,1,1,2,0,2,0,0,6,6,10,,,,,,,,,,,,3,161.2884369000094,161.3882767999894,161.3882767999894,163.28352220001398,163.28352220001398,163.28352220001398,1,1,0.8059394000447355,None,163.28352220001398,163.7819058999885,,,,,,,,Gianna_ZB216,001,2024-02-27_14h22.02.975,stroop-master,2023.1.3,60.19328061020031,
1,綠,green,綠,1,1,1,2,0,2,0,0,7,7,2,,,,,,,,,,,,25,163.7819058999885,163.88198700000066,163.88198700000066,165.77689610002562,165.77689610002562,165.77689610002562,1,1,0.8465532999834977,None,165.77689610002562,166.27579919999698,,,,,,,,Gianna_ZB216,001,2024-02-27_14h22.02.975,stroop-master,2023.1.3,60.19328061020031,
1,紅,red,紅,1,1,1,2,0,2,0,0,8,8,9,,,,,,,,,,,,1,166.27579919999698,166.37551739998162,166.37551739998162,168.27015870000469,168.27015870000469,168.27015870000469,1,1,0.5043589999550022,None,168.27015870000469,168.76915880001616,,,,,,,,Gianna_ZB216,001,2024-02-27_14h22.02.975,stroop-master,2023.1.3,60.19328061020031,
3,藍,blue,黃,1,0,2,2,0,2,0,0,9,9,11,,,,,,,,,,,,0,168.76915880001616,168.86892839998472,168.86892839998472,170.76370000001043,170.76370000001043,170.76370000001043,1,0,1.283319600042887,None,170.76370000001043,171.26261929998873,,,,,,,,Gianna_ZB216,001,2024-02-27_14h22.02.975,stroop-master,2023.1.3,60.19328061020031,
3,綠,green,紅,1,0,2,2,0,2,0,0,10,10,7,,,,,,,,,,,,2,171.26261929998873,171.36234370002057,171.36234370002057,173.25715780002065,173.25715780002065,173.25715780002065,2,1,1.4050835999660194,None,173.25715780002065,173.75626940000802,,,,,,,,Gianna_ZB216,001,2024-02-27_14h22.02.975,stroop-master,2023.1.3,60.19328061020031,
3,黃,yellow,紅,1,0,2,2,0,2,0,0,11,11,3,,,,,,,,,,,,20,173.75626940000802,173.8556253000279,173.8556253000279,175.75093259999994,175.75093259999994,175.75093259999994,2,1,1.0508844999712892,None,,,,,,,,,,Gianna_ZB216,001,2024-02-27_14h22.02.975,stroop-master,2023.1.3,60.19328061020031,
,,,,,,,2,0,2,0,,,,,,,,,,,,,,,,,,,,,,,,,,,,,175.75093259999994,205.7054838000331,,,,,,Gianna_ZB216,001,2024-02-27_14h22.02.975,stroop-master,2023.1.3,60.19328061020031,
4,藍,yellow,綠,0,0,2,3,0,3,0,0,0,0,7,,,,,,,,205.7054838000331,207.700465300004,207.700465300004,208.21487229998456,13,208.21487229998456,208.29860340000596,208.29860340000596,210.19385099998908,210.19385099998908,210.19385099998908,2,1,1.1816719999769703,None,210.19385099998908,210.69236240000464,,,,,,,,Gianna_ZB216,001,2024-02-27_14h22.02.975,stroop-master,2023.1.3,60.19328061020031,
4,黃,green,黃,0,0,2,3,0,3,0,0,1,1,5,,,,,,,,,,,,52,210.69236240000464,210.7922156000277,210.7922156000277,212.68723759998102,212.68723759998102,212.68723759998102,2,1,1.6050237999879755,None,212.68723759998102,213.1859376000357,,,,,,,,Gianna_ZB216,001,2024-02-27_14h22.02.975,stroop-master,2023.1.3,60.19328061020031,
2,綠,yellow,黃,0,1,1,3,0,3,0,0,2,2,2,,,,,,,,,,,,15,213.1859376000357,213.28548620000947,213.28548620000947,215.18044150003698,215.18044150003698,215.18044150003698,1,1,1.2404444999992847,None,215.18044150003698,215.67936910002027,,,,,,,,Gianna_ZB216,001,2024-02-27_14h22.02.975,stroop-master,2023.1.3,60.19328061020031,
2,藍,yellow,黃,0,1,1,3,0,3,0,0,3,3,4,,,,,,,,,,,,13,215.67936910002027,215.77941419999115,215.77941419999115,217.67397080000956,217.67397080000956,217.67397080000956,1,1,1.1480280000250787,None,217.67397080000956,218.17295969999395,,,,,,,,Gianna_ZB216,001,2024-02-27_14h22.02.975,stroop-master,2023.1.3,60.19328061020031,
2,綠,red,紅,0,1,1,3,0,3,0,0,4,4,0,,,,,,,,,,,,8,218.17295969999395,218.27244800003245,218.27244800003245,220.16730480000842,220.16730480000842,220.16730480000842,1,1,0.8947246999596246,None,220.16730480000842,220.6663400999969,,,,,,,,Gianna_ZB216,001,2024-02-27_14h22.02.975,stroop-master,2023.1.3,60.19328061020031,
4,黃,green,紅,0,0,2,3,0,3,0,0,5,5,1,,,,,,,,,,,,54,220.6663400999969,220.76620230003027,220.76620230003027,222.66122680000262,222.66122680000262,222.66122680000262,2,1,0.7856459000031464,None,222.66122680000262,223.15977140003815,,,,,,,,Gianna_ZB216,001,2024-02-27_14h22.02.975,stroop-master,2023.1.3,60.19328061020031,
2,藍,yellow,黃,0,1,1,3,0,3,0,0,6,6,8,,,,,,,,,,,,50,223.15977140003815,223.25970210001105,223.25970210001105,225.15458750003017,225.15458750003017,225.15458750003017,1,1,1.231378800002858,None,225.15458750003017,225.65347419999307,,,,,,,,Gianna_ZB216,001,2024-02-27_14h22.02.975,stroop-master,2023.1.3,60.19328061020031,
4,黃,blue,黃,0,0,2,3,0,3,0,0,7,7,6,,,,,,,,,,,,42,225.65347419999307,225.75292950001312,225.75292950001312,227.64770949998638,227.64770949998638,227.64770949998638,2,1,0.8772300999844447,None,227.64770949998638,228.14668920001714,,,,,,,,Gianna_ZB216,001,2024-02-27_14h22.02.975,stroop-master,2023.1.3,60.19328061020031,
2,綠,red,紅,0,1,1,3,0,3,0,0,8,8,3,,,,,,,,,,,,8,228.14668920001714,228.24645289999899,228.24645289999899,230.14154680003412,230.14154680003412,230.14154680003412,1,1,0.7826563999988139,None,230.14154680003412,230.64011020003818,,,,,,,,Gianna_ZB216,001,2024-02-27_14h22.02.975,stroop-master,2023.1.3,60.19328061020031,
4,黃,blue,綠,0,0,2,3,0,3,0,0,9,9,11,,,,,,,,,,,,31,230.64011020003818,230.7398520000279,230.7398520000279,232.63464110001223,232.63464110001223,232.63464110001223,2,1,1.5110370999900624,None,232.63464110001223,233.13384050002787,,,,,,,,Gianna_ZB216,001,2024-02-27_14h22.02.975,stroop-master,2023.1.3,60.19328061020031,
4,紅,yellow,紅,0,0,2,3,0,3,0,0,10,10,9,,,,,,,,,,,,7,233.13384050002787,233.23335059999954,233.23335059999954,235.12814699998125,235.12814699998125,235.12814699998125,2,1,1.0341697999974713,None,235.12814699998125,235.6266908000107,,,,,,,,Gianna_ZB216,001,2024-02-27_14h22.02.975,stroop-master,2023.1.3,60.19328061020031,
2,藍,red,紅,0,1,1,3,0,3,0,0,11,11,10,,,,,,,,,,,,51,235.6266908000107,235.72652329999255,235.72652329999255,237.62179040000774,237.62179040000774,237.62179040000774,1,1,0.7763101000455208,None,,,,,,,,,,Gianna_ZB216,001,2024-02-27_14h22.02.975,stroop-master,2023.1.3,60.19328061020031,
,,,,,,,3,0,3,0,,,,,,,,,,,,,,,,,,,,,,,,,,,,,237.62179040000774,267.5767289000214,,,,,,Gianna_ZB216,001,2024-02-27_14h22.02.975,stroop-master,2023.1.3,60.19328061020031,
6,到,green,藍,0,0,2,4,0,4,0,0,0,0,8,,,,,,,,267.5767289000214,269.57143389998237,269.57143389998237,270.08880850003334,90,270.08880850003334,270.16978699999163,270.16978699999163,272.0644261999987,272.0644261999987,272.0644261999987,2,1,1.23200340004405,None,272.0644261999987,272.56302120001055,,,,,,,,Gianna_ZB216,001,2024-02-27_14h22.02.975,stroop-master,2023.1.3,60.19328061020031,
5,的,green,綠,0,1,1,4,0,4,0,0,1,1,2,,,,,,,,,,,,70,272.56302120001055,272.6632835000055,272.6632835000055,274.5577708000201,274.5577708000201,274.5577708000201,1,1,0.7738164999755099,None,274.5577708000201,275.05681199999526,,,,,,,,Gianna_ZB216,001,2024-02-27_14h22.02.975,stroop-master,2023.1.3,60.19328061020031,
5,個,blue,藍,0,1,1,4,0,4,0,0,2,2,3,,,,,,,,,,,,75,275.05681199999526,275.1568292999873,275.1568292999873,277.051472000021,277.051472000021,277.051472000021,1,1,0.9108381000114605,None,277.051472000021,277.55020030000014,,,,,,,,Gianna_ZB216,001,2024-02-27_14h22.02.975,stroop-master,2023.1.3,60.19328061020031,
6,的,blue,紅,0,0,2,4,0,4,0,0,3,3,4,,,,,,,,,,,,77,277.55020030000014,277.65004360000603,277.65004360000603,279.54511529998854,279.54511529998854,279.54511529998854,2,1,1.0223870999761857,None,279.54511529998854,280.04346539999824,,,,,,,,Gianna_ZB216,001,2024-02-27_14h22.02.975,stroop-master,2023.1.3,60.19328061020031,
6,到,yellow,綠,0,0,2,4,0,4,0,0,4,4,11,,,,,,,,,,,,104,280.04346539999824,280.1436590999947,280.1436590999947,282.0387236000388,282.0387236000388,282.0387236000388,2,1,1.4650472000357695,None,282.0387236000388,282.5373408999876,,,,,,,,Gianna_ZB216,001,2024-02-27_14h22.02.975,stroop-master,2023.1.3,60.19328061020031,
6,並,yellow,紅,0,0,2,4,0,4,0,0,5,5,5,,,,,,,,,,,,83,282.5373408999876,282.6371276000282,282.6371276000282,284.53185740002664,284.53185740002664,284.53185740002664,2,1,0.9032530999975279,None,284.53185740002664,285.0305154999951,,,,,,,,Gianna_ZB216,001,2024-02-27_14h22.02.975,stroop-master,2023.1.3,60.19328061020031,
5,到,yellow,黃,0,1,1,4,0,4,0,0,6,6,10,,,,,,,,,,,,70,285.0305154999951,285.1305370000191,285.1305370000191,287.0251778999809,287.0251778999809,287.0251778999809,1,1,0.7807291999924928,None,287.0251778999809,287.5238804999972,,,,,,,,Gianna_ZB216,001,2024-02-27_14h22.02.975,stroop-master,2023.1.3,60.19328061020031,
5,個,green,綠,0,1,1,4,0,4,0,0,7,7,7,,,,,,,,,,,,79,287.5238804999972,287.6239360999898,287.6239360999898,289.5189815000049,289.5189815000049,289.5189815000049,1,1,0.6635240000323392,None,289.5189815000049,290.0177576999995,,,,,,,,Gianna_ZB216,001,2024-02-27_14h22.02.975,stroop-master,2023.1.3,60.19328061020031,
6,並,red,黃,0,0,2,4,0,4,0,0,8,8,0,,,,,,,,,,,,99,290.0177576999995,290.11723600002006,290.11723600002006,292.0120775999967,292.0120775999967,292.0120775999967,2,1,0.8309373999945819,None,292.0120775999967,292.51112350000767,,,,,,,,Gianna_ZB216,001,2024-02-27_14h22.02.975,stroop-master,2023.1.3,60.19328061020031,
5,到,yellow,黃,0,1,1,4,0,4,0,0,9,9,6,,,,,,,,,,,,117,292.51112350000767,292.61051279999083,292.61051279999083,294.5059372999822,294.5059372999822,294.5059372999822,1,1,0.7884817000012845,None,294.5059372999822,295.00430820003385,,,,,,,,Gianna_ZB216,001,2024-02-27_14h22.02.975,stroop-master,2023.1.3,60.19328061020031,
6,個,blue,黃,0,0,2,4,0,4,0,0,10,10,9,,,,,,,,,,,,70,295.00430820003385,295.1042968999827,295.1042968999827,296.999458700011,296.999458700011,296.999458700011,2,1,1.1355697000399232,None,296.999458700011,297.49808739998844,,,,,,,,Gianna_ZB216,001,2024-02-27_14h22.02.975,stroop-master,2023.1.3,60.19328061020031,
5,到,yellow,黃,0,1,1,4,0,4,0,0,11,11,1,,,,,,,,,,,,97,297.49808739998844,297.597952799988,297.597952799988,299.4926591999829,299.4926591999829,299.4926591999829,1,1,0.6407865000073798,None,,,,,,,,,,Gianna_ZB216,001,2024-02-27_14h22.02.975,stroop-master,2023.1.3,60.19328061020031,
,,,,,,,4,0,4,0,,,,,,,,,,,,,,,,,,,,,,,,,,,,,299.4926591999829,329.44776950002415,,,,,,Gianna_ZB216,001,2024-02-27_14h22.02.975,stroop-master,2023.1.3,60.19328061020031,
1,綠,green,綠,1,1,1,5,0,5,0,0,0,0,11,,,,,,,,329.44776950002415,331.44168190000346,331.44168190000346,331.9564402999822,0,331.9564402999822,332.04045640002005,332.04045640002005,333.93573800002923,333.93573800002923,333.93573800002923,1,1,0.9310192000120878,None,333.93573800002923,334.43442750000395,,,,,,,,Gianna_ZB216,001,2024-02-27_14h22.02.975,stroop-master,2023.1.3,60.19328061020031,
3,黃,yellow,藍,1,0,2,5,0,5,0,0,1,1,1,,,,,,,,,,,,23,334.43442750000395,334.5338481999934,334.5338481999934,336.4289925000048,336.4289925000048,336.4289925000048,1,0,1.6694951000390574,None,336.4289925000048,336.92761650000466,,,,,,,,Gianna_ZB216,001,2024-02-27_14h22.02.975,stroop-master,2023.1.3,60.19328061020031,
1,紅,red,紅,1,1,1,5,0,5,0,0,2,2,0,,,,,,,,,,,,2,336.92761650000466,337.0277155000367,337.0277155000367,338.9223487999989,338.9223487999989,338.9223487999989,1,1,0.7448571000131778,None,338.9223487999989,339.4214449999854,,,,,,,,Gianna_ZB216,001,2024-02-27_14h22.02.975,stroop-master,2023.1.3,60.19328061020031,
3,紅,red,綠,1,0,2,5,0,5,0,0,3,3,6,,,,,,,,,,,,23,339.4214449999854,339.521192300017,339.521192300017,341.4157699000207,341.4157699000207,341.4157699000207,2,1,0.921613399987109,None,341.4157699000207,341.9149491999997,,,,,,,,Gianna_ZB216,001,2024-02-27_14h22.02.975,stroop-master,2023.1.3,60.19328061020031,
1,紅,red,紅,1,1,1,5,0,5,0,0,4,4,5,,,,,,,,,,,,18,341.9149491999997,342.0146773000015,342.0146773000015,343.9092411000165,343.9092411000165,343.9092411000165,1,1,0.9043307999963872,None,343.9092411000165,344.40791529999115,,,,,,,,Gianna_ZB216,001,2024-02-27_14h22.02.975,stroop-master,2023.1.3,60.19328061020031,
1,黃,yellow,黃,1,1,1,5,0,5,0,0,5,5,2,,,,,,,,,,,,0,344.40791529999115,344.5077343999874,344.5077343999874,346.40293640003074,346.40293640003074,346.40293640003074,1,1,0.7507676999666728,None,346.40293640003074,346.90147510002134,,,,,,,,Gianna_ZB216,001,2024-02-27_14h22.02.975,stroop-master,2023.1.3,60.19328061020031,
3,黃,yellow,藍,1,0,2,5,0,5,0,0,6,6,3,,,,,,,,,,,,18,346.90147510002134,347.00163399998564,347.00163399998564,348.89626589999534,348.89626589999534,348.89626589999534,2,1,1.4254704000195488,None,348.89626589999534,349.39508759998716,,,,,,,,Gianna_ZB216,001,2024-02-27_14h22.02.975,stroop-master,2023.1.3,60.19328061020031,
3,紅,red,綠,1,0,2,5,0,5,0,0,7,7,4,,,,,,,,,,,,20,349.39508759998716,349.49504579999484,349.49504579999484,351.38992270000745,351.38992270000745,351.38992270000745,2,1,1.2349317999905907,None,351.38992270000745,351.8884901999845,,,,,,,,Gianna_ZB216,001,2024-02-27_14h22.02.975,stroop-master,2023.1.3,60.19328061020031,
1,藍,blue,藍,1,1,1,5,0,5,0,0,8,8,8,,,,,,,,,,,,1,351.8884901999845,351.9883980000159,351.9883980000159,353.88353990000905,353.88353990000905,353.88353990000905,1,1,0.6112632000003941,None,353.88353990000905,354.38183030002983,,,,,,,,Gianna_ZB216,001,2024-02-27_14h22.02.975,stroop-master,2023.1.3,60.19328061020031,
3,綠,green,紅,1,0,2,5,0,5,0,0,9,9,10,,,,,,,,,,,,0,354.38183030002983,354.4818596999976,354.4818596999976,356.3768087000353,356.3768087000353,356.3768087000353,2,1,1.106794000021182,None,356.3768087000353,356.8755055000074,,,,,,,,Gianna_ZB216,001,2024-02-27_14h22.02.975,stroop-master,2023.1.3,60.19328061020031,
1,紅,red,紅,1,1,1,5,0,5,0,0,10,10,9,,,,,,,,,,,,25,356.8755055000074,356.9753437000327,356.9753437000327,358.86990370001877,358.86990370001877,358.86990370001877,1,1,1.466498599969782,None,358.86990370001877,359.368745499989,,,,,,,,Gianna_ZB216,001,2024-02-27_14h22.02.975,stroop-master,2023.1.3,60.19328061020031,
3,藍,blue,黃,1,0,2,5,0,5,0,0,11,11,7,,,,,,,,,,,,3,359.368745499989,359.4684680000064,359.4684680000064,361.36384900001576,361.36384900001576,361.36384900001576,2,1,1.3308092000079341,None,,,,,,,,,,Gianna_ZB216,001,2024-02-27_14h22.02.975,stroop-master,2023.1.3,60.19328061020031,
,,,,,,,5,0,5,0,,,,,,,,,,,,,,,,,,,,,,,,,,,,,361.36384900001576,391.31853410002077,,,,,,Gianna_ZB216,001,2024-02-27_14h22.02.975,stroop-master,2023.1.3,60.19328061020031,
2,藍,red,紅,0,1,1,6,0,6,0,0,0,0,4,,,,,,,,391.31853410002077,393.31294460000936,393.31294460000936,393.8268433000194,47,393.8268433000194,393.911773800035,393.911773800035,395.8064937000163,395.8064937000163,395.8064937000163,1,1,0.9380267999949865,None,395.8064937000163,396.3051419000258,,,,,,,,Gianna_ZB216,001,2024-02-27_14h22.02.975,stroop-master,2023.1.3,60.19328061020031,
4,黃,red,黃,0,0,2,6,0,6,0,0,1,1,0,,,,,,,,,,,,15,396.3051419000258,396.40499920002185,396.40499920002185,398.30030479998095,398.30030479998095,398.30030479998095,2,1,1.13180229999125,None,398.30030479998095,398.79887609998696,,,,,,,,Gianna_ZB216,001,2024-02-27_14h22.02.975,stroop-master,2023.1.3,60.19328061020031,
4,黃,blue,紅,0,0,2,6,0,6,0,0,2,2,8,,,,,,,,,,,,48,398.79887609998696,398.89882160001434,398.89882160001434,400.7937820000225,400.7937820000225,400.7937820000225,2,1,0.9527481999830343,None,400.7937820000225,401.29201700002886,,,,,,,,Gianna_ZB216,001,2024-02-27_14h22.02.975,stroop-master,2023.1.3,60.19328061020031,
2,黃,green,綠,0,1,1,6,0,6,0,0,3,3,7,,,,,,,,,,,,15,401.29201700002886,401.39219690003665,401.39219690003665,403.2884141000104,403.2884141000104,403.2884141000104,1,1,0.794652699958533,None,403.2884141000104,403.7859334999812,,,,,,,,Gianna_ZB216,001,2024-02-27_14h22.02.975,stroop-master,2023.1.3,60.19328061020031,
2,綠,yellow,黃,0,1,1,6,0,6,0,0,4,4,10,,,,,,,,,,,,7,403.7859334999812,403.8855294000241,403.8855294000241,405.78045120002935,405.78045120002935,405.78045120002935,1,1,0.7345768999657594,None,405.78045120002935,406.2793529999908,,,,,,,,Gianna_ZB216,001,2024-02-27_14h22.02.975,stroop-master,2023.1.3,60.19328061020031,
4,藍,green,藍,0,0,2,6,0,6,0,0,5,5,9,,,,,,,,,,,,6,406.2793529999908,406.3791043999954,406.3791043999954,408.2740341000026,408.2740341000026,408.2740341000026,2,1,0.9929160999599844,None,408.2740341000026,408.7728688000352,,,,,,,,Gianna_ZB216,001,2024-02-27_14h22.02.975,stroop-master,2023.1.3,60.19328061020031,
2,綠,yellow,黃,0,1,1,6,0,6,0,0,6,6,3,,,,,,,,,,,,58,408.7728688000352,408.8722248999984,408.8722248999984,410.7676417999901,410.7676417999901,410.7676417999901,1,1,0.8694948999909684,None,410.7676417999901,411.2662105000345,,,,,,,,Gianna_ZB216,001,2024-02-27_14h22.02.975,stroop-master,2023.1.3,60.19328061020031,
4,綠,blue,紅,0,0,2,6,0,6,0,0,7,7,6,,,,,,,,,,,,12,411.2662105000345,411.36565669998527,411.36565669998527,413.26070859999163,413.26070859999163,413.26070859999163,2,1,1.1544886999763548,None,413.26070859999163,413.75940460001584,,,,,,,,Gianna_ZB216,001,2024-02-27_14h22.02.975,stroop-master,2023.1.3,60.19328061020031,
4,黃,red,綠,0,0,2,6,0,6,0,0,8,8,2,,,,,,,,,,,,49,413.75940460001584,413.85955390002346,413.85955390002346,415.7545508000185,415.7545508000185,415.7545508000185,2,1,0.9090432999655604,None,415.7545508000185,416.253093300038,,,,,,,,Gianna_ZB216,001,2024-02-27_14h22.02.975,stroop-master,2023.1.3,60.19328061020031,
2,綠,yellow,黃,0,1,1,6,0,6,0,0,9,9,1,,,,,,,,,,,,44,416.253093300038,416.35255429998506,416.35255429998506,418.2480101999827,418.2480101999827,418.2480101999827,1,1,0.8704652999876998,None,418.2480101999827,418.74650910001947,,,,,,,,Gianna_ZB216,001,2024-02-27_14h22.02.975,stroop-master,2023.1.3,60.19328061020031,
4,紅,blue,黃,0,0,2,6,0,6,0,0,10,10,11,,,,,,,,,,,,15,418.74650910001947,418.8459673000034,418.8459673000034,420.7413147999905,420.7413147999905,420.7413147999905,2,1,1.3222197000286542,None,420.7413147999905,421.23994709999533,,,,,,,,Gianna_ZB216,001,2024-02-27_14h22.02.975,stroop-master,2023.1.3,60.19328061020031,
2,紅,green,綠,0,1,1,6,0,6,0,0,11,11,5,,,,,,,,,,,,29,421.23994709999533,421.33985420002136,421.33985420002136,423.23454740003217,423.23454740003217,423.23454740003217,1,1,0.8316516000195406,None,,,,,,,,,,Gianna_ZB216,001,2024-02-27_14h22.02.975,stroop-master,2023.1.3,60.19328061020031,
,,,,,,,6,0,6,0,,,,,,,,,,,,,,,,,,,,,,,,,,,,,423.23454740003217,453.1892684000195,,,,,,Gianna_ZB216,001,2024-02-27_14h22.02.975,stroop-master,2023.1.3,60.19328061020031,
6,個,red,綠,0,0,2,7,0,7,0,0,0,0,11,,,,,,,,453.1892684000195,455.18430429999717,455.18430429999717,455.69742410001345,74,455.69742410001345,455.78250999999,455.78250999999,457.6773496000096,457.6773496000096,457.6773496000096,2,1,0.883213400025852,None,457.6773496000096,458.1763592000352,,,,,,,,Gianna_ZB216,001,2024-02-27_14h22.02.975,stroop-master,2023.1.3,60.19328061020031,
6,並,green,藍,0,0,2,7,0,7,0,0,1,1,7,,,,,,,,,,,,66,458.1763592000352,458.27580499998294,458.27580499998294,460.17119239998283,460.17119239998283,460.17119239998283,2,1,1.5185466999537311,None,460.17119239998283,460.66989349998767,,,,,,,,Gianna_ZB216,001,2024-02-27_14h22.02.975,stroop-master,2023.1.3,60.19328061020031,
5,並,blue,藍,0,1,1,7,0,7,0,0,2,2,8,,,,,,,,,,,,70,460.66989349998767,460.7697305000038,460.7697305000038,462.66466800001217,462.66466800001217,462.66466800001217,1,1,1.6418193000135943,None,462.66466800001217,463.1633177000331,,,,,,,,Gianna_ZB216,001,2024-02-27_14h22.02.975,stroop-master,2023.1.3,60.19328061020031,
5,並,yellow,黃,0,1,1,7,0,7,0,0,3,3,1,,,,,,,,,,,,64,463.1633177000331,463.26272629998857,463.26272629998857,465.15786229999503,465.15786229999503,465.15786229999503,1,1,0.7864894000231288,None,465.15786229999503,465.6567359000328,,,,,,,,Gianna_ZB216,001,2024-02-27_14h22.02.975,stroop-master,2023.1.3,60.19328061020031,
6,個,green,黃,0,0,2,7,0,7,0,0,4,4,10,,,,,,,,,,,,78,465.6567359000328,465.7571204000269,465.7571204000269,467.6512529000174,467.6512529000174,467.6512529000174,2,1,1.2091116999508813,None,467.6512529000174,468.1502341000014,,,,,,,,Gianna_ZB216,001,2024-02-27_14h22.02.975,stroop-master,2023.1.3,60.19328061020031,
5,個,yellow,黃,0,1,1,7,0,7,0,0,5,5,4,,,,,,,,,,,,82,468.1502341000014,468.25012819998665,468.25012819998665,470.144994900038,470.144994900038,470.144994900038,1,1,1.3055996000184678,None,470.144994900038,470.64334800001234,,,,,,,,Gianna_ZB216,001,2024-02-27_14h22.02.975,stroop-master,2023.1.3,60.19328061020031,
6,個,green,紅,0,0,2,7,0,7,0,0,6,6,6,,,,,,,,,,,,122,470.64334800001234,470.743510100001,470.743510100001,472.6385035000276,472.6385035000276,472.6385035000276,2,1,0.8047767000389285,None,472.6385035000276,473.13722030003555,,,,,,,,Gianna_ZB216,001,2024-02-27_14h22.02.975,stroop-master,2023.1.3,60.19328061020031,
5,的,yellow,黃,0,1,1,7,0,7,0,0,7,7,0,,,,,,,,,,,,87,473.13722030003555,473.23706670000684,473.23706670000684,475.1319124000147,475.1319124000147,475.1319124000147,1,1,0.9506590000237338,None,475.1319124000147,475.63057360000676,,,,,,,,Gianna_ZB216,001,2024-02-27_14h22.02.975,stroop-master,2023.1.3,60.19328061020031,
5,到,yellow,黃,0,1,1,7,0,7,0,0,8,8,2,,,,,,,,,,,,65,475.63057360000676,475.7304620000068,475.7304620000068,477.62492360000033,477.62492360000033,477.62492360000033,1,1,0.7754853999940678,None,477.62492360000033,478.12370699999155,,,,,,,,Gianna_ZB216,001,2024-02-27_14h22.02.975,stroop-master,2023.1.3,60.19328061020031,
6,個,blue,綠,0,0,2,7,0,7,0,0,9,9,9,,,,,,,,,,,,118,478.12370699999155,478.22379190003267,478.22379190003267,480.11881240003277,480.11881240003277,480.11881240003277,2,1,1.0118458999786526,None,480.11881240003277,480.6174323000014,,,,,,,,Gianna_ZB216,001,2024-02-27_14h22.02.975,stroop-master,2023.1.3,60.19328061020031,
6,並,blue,綠,0,0,2,7,0,7,0,0,10,10,5,,,,,,,,,,,,124,480.6174323000014,480.7170347000356,480.7170347000356,482.61233370000264,482.61233370000264,482.61233370000264,2,1,1.3034096999908797,None,482.61233370000264,483.11062739999034,,,,,,,,Gianna_ZB216,001,2024-02-27_14h22.02.975,stroop-master,2023.1.3,60.19328061020031,
5,並,red,紅,0,1,1,7,0,7,0,0,11,11,3,,,,,,,,,,,,127,483.11062739999034,483.21079460001783,483.21079460001783,485.1058562999824,485.1058562999824,485.1058562999824,1,1,1.1779287999961525,None,,,,,,,,,,Gianna_ZB216,001,2024-02-27_14h22.02.975,stroop-master,2023.1.3,60.19328061020031,
,,,,,,,7,0,7,0,,,,,,,,,,,,,,,,,,,,,,,,,,,,,485.1058562999824,515.0605365000083,,,,,,Gianna_ZB216,001,2024-02-27_14h22.02.975,stroop-master,2023.1.3,60.19328061020031,
5,的,yellow,黃,0,1,1,8,0,8,0,0,0,0,4,,,,,,,,515.0605365000083,517.0551946000196,517.0551946000196,517.5690343999886,101,517.5690343999886,517.6534612000105,517.6534612000105,519.5486843999824,519.5486843999824,519.5486843999824,1,1,0.6617167000076734,None,519.5486843999824,520.0474193000118,,,,,,,,Gianna_ZB216,001,2024-02-27_14h22.02.975,stroop-master,2023.1.3,60.19328061020031,
6,個,green,藍,0,0,2,8,0,8,0,0,1,1,1,,,,,,,,,,,,123,520.0474193000118,520.1469428000273,520.1469428000273,522.0422322000377,522.0422322000377,522.0422322000377,2,1,0.8436574999941513,None,522.0422322000377,522.5408410000382,,,,,,,,Gianna_ZB216,001,2024-02-27_14h22.02.975,stroop-master,2023.1.3,60.19328061020031,
5,的,green,綠,0,1,1,8,0,8,0,0,2,2,11,,,,,,,,,,,,113,522.5408410000382,522.6406096999999,522.6406096999999,524.5353225999861,524.5353225999861,524.5353225999861,2,0,0.5907409000210464,None,524.5353225999861,525.034488699981,,,,,,,,Gianna_ZB216,001,2024-02-27_14h22.02.975,stroop-master,2023.1.3,60.19328061020031,
6,的,red,藍,0,0,2,8,0,8,0,0,3,3,2,,,,,,,,,,,,64,525.034488699981,525.1342067000223,525.1342067000223,527.0288136000163,527.0288136000163,527.0288136000163,2,1,1.305559100001119,None,527.0288136000163,527.5273608000134,,,,,,,,Gianna_ZB216,001,2024-02-27_14h22.02.975,stroop-master,2023.1.3,60.19328061020031,
6,到,red,黃,0,0,2,8,0,8,0,0,4,4,10,,,,,,,,,,,,74,527.5273608000134,527.6275426000357,527.6275426000357,529.522168800002,529.522168800002,529.522168800002,2,1,1.4049542999709956,None,529.522168800002,530.0211820999975,,,,,,,,Gianna_ZB216,001,2024-02-27_14h22.02.975,stroop-master,2023.1.3,60.19328061020031,
6,並,green,紅,0,0,2,8,0,8,0,0,5,5,5,,,,,,,,,,,,86,530.0211820999975,530.121048800007,530.121048800007,532.0165798999951,532.0165798999951,532.0165798999951,2,1,1.3981639000121504,None,532.0165798999951,532.5147179000196,,,,,,,,Gianna_ZB216,001,2024-02-27_14h22.02.975,stroop-master,2023.1.3,60.19328061020031,
5,並,red,紅,0,1,1,8,0,8,0,0,6,6,3,,,,,,,,,,,,65,532.5147179000196,532.6144453000161,532.6144453000161,534.5093637999962,534.5093637999962,534.5093637999962,1,1,1.5687317000119947,None,534.5093637999962,535.0079246000387,,,,,,,,Gianna_ZB216,001,2024-02-27_14h22.02.975,stroop-master,2023.1.3,60.19328061020031,
5,並,blue,藍,0,1,1,8,0,8,0,0,7,7,8,,,,,,,,,,,,94,535.0079246000387,535.1079468000098,535.1079468000098,537.0030644999933,537.0030644999933,537.0030644999933,1,1,0.761575200012885,None,537.0030644999933,537.501595299982,,,,,,,,Gianna_ZB216,001,2024-02-27_14h22.02.975,stroop-master,2023.1.3,60.19328061020031,
6,到,blue,綠,0,0,2,8,0,8,0,0,8,8,7,,,,,,,,,,,,65,537.501595299982,537.6011601000209,537.6011601000209,539.4963325000135,539.4963325000135,539.4963325000135,2,1,0.865674200002104,None,539.4963325000135,539.9950839999947,,,,,,,,Gianna_ZB216,001,2024-02-27_14h22.02.975,stroop-master,2023.1.3,60.19328061020031,
5,並,blue,藍,0,1,1,8,0,8,0,0,9,9,6,,,,,,,,,,,,78,539.9950839999947,540.0948374000145,540.0948374000145,541.9899020000012,541.9899020000012,541.9899020000012,1,1,0.6262649999698624,None,541.9899020000012,542.4885974000208,,,,,,,,Gianna_ZB216,001,2024-02-27_14h22.02.975,stroop-master,2023.1.3,60.19328061020031,
5,個,yellow,黃,0,1,1,8,0,8,0,0,10,10,9,,,,,,,,,,,,102,542.4885974000208,542.5879060000298,542.5879060000298,544.4832621000241,544.4832621000241,544.4832621000241,1,1,1.1647347999969497,None,544.4832621000241,544.9817605999997,,,,,,,,Gianna_ZB216,001,2024-02-27_14h22.02.975,stroop-master,2023.1.3,60.19328061020031,
6,到,red,藍,0,0,2,8,0,8,0,0,11,11,0,,,,,,,,,,,,75,544.9817605999997,545.0816999000381,545.0816999000381,546.9767724000267,546.9767724000267,546.9767724000267,2,1,0.8463316999841481,None,,,,,,,,,,Gianna_ZB216,001,2024-02-27_14h22.02.975,stroop-master,2023.1.3,60.19328061020031,
,,,,,,,8,0,8,0,,,,,,,,,,,,,,,,,,,,,,,,,,,,,546.9767724000267,576.9315400000196,,,,,,Gianna_ZB216,001,2024-02-27_14h22.02.975,stroop-master,2023.1.3,60.19328061020031,
,,,,,,,,,,,,,,,,,,,,,,,,,,,,,,,,,,,,,,,,,576.9315400000196,576.9315400000196,q,9.544150099973194,None,Gianna_ZB216,001,2024-02-27_14h22.02.975,stroop-master,2023.1.3,60.19328061020031,
