cond,Hour,Minute,bottomText,match,corrAns,block.thisRepN,block.thisTrialN,block.thisN,block.thisIndex,trials.thisRepN,trials.thisTrialN,trials.thisN,trials.thisIndex,trigger_txt.started,trigger_txt.stopped,trigger_resp.keys,trigger_resp.rt,trigger_resp.started,trigger_resp.stopped,instr_txt.started,instr_txt.stopped,prepared_resp.keys,prepared_resp.rt,prepared_resp.started,prepared_resp.stopped,prep_instr.started,prep_instr.stopped,start_indicator.started,start_indicator.stopped,use_rows,corr_var,clock_digital.started,clock_digital.stopped,direction_txt.started,direction_txt.stopped,key_resp.keys,key_resp.corr,key_resp.rt,key_resp.started,key_resp.stopped,trial_fixation.started,trial_fixation.stopped,rest_txt.started,rest_txt.stopped,participant,session,date,expName,psychopyVersion,frameRate,
,,,,,,,,,,,,,,15.798027400043793,None,s,1.4565880000009201,15.798027400043793,None,,,,,,,,,,,,,,,,,,,,,,,,,,Gianna_personal,001,2024_Feb_23_1132,clock-master,2021.1.4,59.527352823161166,
,,,,,,,,,,,,,,,,,,,,17.27685060002841,None,1,2.4980653999955393,17.27685060002841,None,,,,,,,,,,,,,,,,,,,,Gianna_personal,001,2024_Feb_23_1132,clock-master,2021.1.4,59.527352823161166,
2,19,54,右下,0,2,0,0,0,0,0,0,0,1,,,,,,,,,,,,,19.800413000048138,21.79120800003875,21.79120800003875,None,55,1,22.34865440003341,None,22.44072569999844,None,2,1,1.870511399989482,22.44072569999844,None,24.83927830000175,None,,,Gianna_personal,001,2024_Feb_23_1132,clock-master,2021.1.4,59.527352823161166,
2,11,40,右下,0,2,0,0,0,0,0,1,1,5,,,,,,,,,,,,,,,,,71,1,25.35086540004704,None,25.455767600040417,None,2,1,1.8417684999876656,25.455767600040417,None,27.854270600015298,None,,,Gianna_personal,001,2024_Feb_23_1132,clock-master,2021.1.4,59.527352823161166,
2,11,49,右下,0,2,0,0,0,0,0,2,2,0,,,,,,,,,,,,,,,,,32,1,28.35734310001135,None,28.454469400050584,None,2,1,2.110391800000798,28.454469400050584,None,30.852410799998324,None,,,Gianna_personal,001,2024_Feb_23_1132,clock-master,2021.1.4,59.527352823161166,
1,10,35,左下,1,1,0,0,0,0,0,3,3,6,,,,,,,,,,,,,,,,,35,1,31.370412400050554,None,31.469026200007647,None,1,1,2.217516499978956,31.469026200007647,None,33.86758810002357,None,,,Gianna_personal,001,2024_Feb_23_1132,clock-master,2021.1.4,59.527352823161166,
1,9,13,右上,1,1,0,0,0,0,0,4,4,9,,,,,,,,,,,,,,,,,74,0,34.37404250004329,None,34.467455200036056,None,2,0,1.6764085000031628,34.467455200036056,None,36.86594340001466,None,,,Gianna_personal,001,2024_Feb_23_1132,clock-master,2021.1.4,59.527352823161166,
1,10,29,右下,1,1,0,0,0,0,0,5,5,3,,,,,,,,,,,,,,,,,54,0,37.379421500023454,None,37.48248400003649,None,2,0,1.824845600000117,37.48248400003649,None,39.880860100034624,None,,,Gianna_personal,001,2024_Feb_23_1132,clock-master,2021.1.4,59.527352823161166,
1,9,49,左下,1,1,0,0,0,0,0,6,6,2,,,,,,,,,,,,,,,,,12,1,40.38669860002119,None,40.48096160002751,None,1,1,2.1166074000066146,40.48096160002751,None,42.87916220002808,None,,,Gianna_personal,001,2024_Feb_23_1132,clock-master,2021.1.4,59.527352823161166,
2,11,50,右上,0,2,0,0,0,0,0,7,7,7,,,,,,,,,,,,,,,,,76,1,43.38639040000271,None,43.47899490001146,None,2,1,1.9219137999461964,43.47899490001146,None,45.87746550003067,None,,,Gianna_personal,001,2024_Feb_23_1132,clock-master,2021.1.4,59.527352823161166,
1,7,18,右下,1,1,0,0,0,0,0,8,8,8,,,,,,,,,,,,,,,,,1,0,46.39175910002086,None,46.49424349999754,None,None,0,,46.49424349999754,None,48.89244290004717,None,,,Gianna_personal,001,2024_Feb_23_1132,clock-master,2021.1.4,59.527352823161166,
2,10,49,左下,0,2,0,0,0,0,0,9,9,4,,,,,,,,,,,,,,,,,7,1,49.4009288000525,None,49.49213960004272,None,2,1,2.2662440999993123,49.49213960004272,None,None,None,,,Gianna_personal,001,2024_Feb_23_1132,clock-master,2021.1.4,59.527352823161166,
,,,,,,0,0,0,0,,,,,,,,,,,,,,,,,,,,,,,,,,,,,,,,,,51.89052930002799,None,Gianna_personal,001,2024_Feb_23_1132,clock-master,2021.1.4,59.527352823161166,
2,13,31,左上,0,2,1,0,1,0,0,0,0,6,,,,,,,,,,,,,81.90781320002861,83.9062531000236,83.9062531000236,None,2,0,84.44238920003409,None,84.53911790001439,None,None,0,,84.53911790001439,None,86.93794100004015,None,,,Gianna_personal,001,2024_Feb_23_1132,clock-master,2021.1.4,59.527352823161166,
2,17,11,左上,0,2,1,0,1,0,0,1,1,8,,,,,,,,,,,,,,,,,9,0,87.44112250005128,None,87.53767140000127,None,None,0,,87.53767140000127,None,89.93604250001954,None,,,Gianna_personal,001,2024_Feb_23_1132,clock-master,2021.1.4,59.527352823161166,
2,17,44,左上,0,2,1,0,1,0,0,2,2,4,,,,,,,,,,,,,,,,,70,0,90.43577660003211,None,90.53611410001758,None,None,0,,90.53611410001758,None,92.93460010003764,None,,,Gianna_personal,001,2024_Feb_23_1132,clock-master,2021.1.4,59.527352823161166,
2,19,17,左上,0,2,1,0,1,0,0,3,3,2,,,,,,,,,,,,,,,,,37,0,93.43984890001593,None,93.53425580001203,None,None,0,,93.53425580001203,None,95.93289440002991,None,,,Gianna_personal,001,2024_Feb_23_1132,clock-master,2021.1.4,59.527352823161166,
2,15,23,左上,0,2,1,0,1,0,0,4,4,5,,,,,,,,,,,,,,,,,67,0,96.43411880003987,None,96.53302190004615,None,None,0,,96.53302190004615,None,98.93105290003587,None,,,Gianna_personal,001,2024_Feb_23_1132,clock-master,2021.1.4,59.527352823161166,
1,14,51,左上,1,1,1,0,1,0,0,5,5,9,,,,,,,,,,,,,,,,,86,0,99.43075820000377,None,99.53133260004688,None,None,0,,99.53133260004688,None,101.92940900003305,None,,,Gianna_personal,001,2024_Feb_23_1132,clock-master,2021.1.4,59.527352823161166,
1,14,14,右上,1,1,1,0,1,0,0,6,6,3,,,,,,,,,,,,,,,,,59,0,102.43776020000223,None,102.52945390000241,None,None,0,,102.52945390000241,None,104.92762760003097,None,,,Gianna_personal,001,2024_Feb_23_1132,clock-master,2021.1.4,59.527352823161166,
1,8,55,左上,1,1,1,0,1,0,0,7,7,0,,,,,,,,,,,,,,,,,36,0,105.43700440000976,None,105.54431610001484,None,None,0,,105.54431610001484,None,107.94282779999776,None,,,Gianna_personal,001,2024_Feb_23_1132,clock-master,2021.1.4,59.527352823161166,
1,10,3,右上,1,1,1,0,1,0,0,8,8,1,,,,,,,,,,,,,,,,,65,0,108.44753130001482,None,108.54272510000737,None,None,0,,108.54272510000737,None,110.94110910000745,None,,,Gianna_personal,001,2024_Feb_23_1132,clock-master,2021.1.4,59.527352823161166,
1,10,36,左下,1,1,1,0,1,0,0,9,9,7,,,,,,,,,,,,,,,,,40,0,111.45398990000831,None,111.55759730003774,None,None,0,,111.55759730003774,None,None,None,,,Gianna_personal,001,2024_Feb_23_1132,clock-master,2021.1.4,59.527352823161166,
,,,,,,1,0,1,0,,,,,,,,,,,,,,,,,,,,,,,,,,,,,,,,,,113.9560794000281,None,Gianna_personal,001,2024_Feb_23_1132,clock-master,2021.1.4,59.527352823161166,
1,18,14,右上,1,1,2,0,2,0,0,0,0,9,,,,,,,,,,,,,143.97309640003368,145.9720309000113,145.9720309000113,None,11,0,146.49753839999903,None,146.5877398000448,None,2,0,1.732239299977664,146.5877398000448,None,148.98646280000685,None,,,Gianna_personal,001,2024_Feb_23_1132,clock-master,2021.1.4,59.527352823161166,
1,14,20,右下,1,1,2,0,2,0,0,1,1,8,,,,,,,,,,,,,,,,,50,1,149.49477770004887,None,149.586225200037,None,1,1,1.3789986000047065,149.586225200037,None,151.9847328000469,None,,,Gianna_personal,001,2024_Feb_23_1132,clock-master,2021.1.4,59.527352823161166,
1,10,28,右下,1,1,2,0,2,0,0,2,2,0,,,,,,,,,,,,,,,,,87,1,152.48633060004795,None,152.58455170004163,None,1,1,1.9950885999714956,152.58455170004163,None,154.98301870003343,None,,,Gianna_personal,001,2024_Feb_23_1132,clock-master,2021.1.4,59.527352823161166,
2,19,10,左下,0,2,2,0,2,0,0,3,3,6,,,,,,,,,,,,,,,,,62,1,155.49136700003874,None,155.58312970004044,None,2,1,1.3916923999786377,155.58312970004044,None,157.98141150001902,None,,,Gianna_personal,001,2024_Feb_23_1132,clock-master,2021.1.4,59.527352823161166,
2,10,48,左下,0,2,2,0,2,0,0,4,4,1,,,,,,,,,,,,,,,,,66,1,158.48776660003932,None,158.58105979999527,None,2,1,1.8314145000185817,158.58105979999527,None,160.97974440001417,None,,,Gianna_personal,001,2024_Feb_23_1132,clock-master,2021.1.4,59.527352823161166,
2,15,22,左上,0,2,2,0,2,0,0,5,5,3,,,,,,,,,,,,,,,,,20,0,161.48870670003816,None,161.5965145000373,None,None,0,,161.5965145000373,None,163.99460030003684,None,,,Gianna_personal,001,2024_Feb_23_1132,clock-master,2021.1.4,59.527352823161166,
2,17,29,左下,0,2,2,0,2,0,0,6,6,4,,,,,,,,,,,,,,,,,69,1,164.50047280004947,None,164.59471520001534,None,2,1,1.9502006000257097,164.59471520001534,None,166.99300360004418,None,,,Gianna_personal,001,2024_Feb_23_1132,clock-master,2021.1.4,59.527352823161166,
1,16,47,左上,1,1,2,0,2,0,0,7,7,5,,,,,,,,,,,,,,,,,43,1,167.49845910002477,None,167.59321720001753,None,1,1,1.9236159999854863,167.59321720001753,None,169.99128190003103,None,,,Gianna_personal,001,2024_Feb_23_1132,clock-master,2021.1.4,59.527352823161166,
1,16,36,左下,1,1,2,0,2,0,0,8,8,7,,,,,,,,,,,,,,,,,38,0,170.5010636000079,None,170.59063760004938,None,2,0,1.875485899974592,170.59063760004938,None,172.98917509999592,None,,,Gianna_personal,001,2024_Feb_23_1132,clock-master,2021.1.4,59.527352823161166,
2,15,41,右下,0,2,2,0,2,0,0,9,9,2,,,,,,,,,,,,,,,,,21,1,173.48907280003186,None,173.58872360002715,None,2,1,2.326364399981685,173.58872360002715,None,None,None,,,Gianna_personal,001,2024_Feb_23_1132,clock-master,2021.1.4,59.527352823161166,
