cond,Hour,Minute,bottomText,match,corrAns,block.thisRepN,block.thisTrialN,block.thisN,block.thisIndex,trials.thisRepN,trials.thisTrialN,trials.thisN,trials.thisIndex,trigger_txt.started,trigger_resp.started,trigger_resp.keys,trigger_resp.rt,trigger_resp.duration,instr_txt.started,prepared_resp.started,prepared_resp.keys,prepared_resp.rt,prepared_resp.duration,prep_instr.started,prep_instr.stopped,start_indicator.started,start_indicator.stopped,use_rows,clock_digital.started,direction_txt.started,key_resp.started,clock_digital.stopped,direction_txt.stopped,key_resp.stopped,corr_var,key_resp.keys,key_resp.corr,key_resp.rt,key_resp.duration,trial_fixation.started,trial_fixation.stopped,rest_txt.started,rest_txt.stopped,end_txt.started,end_key_resp.started,end_key_resp.keys,end_key_resp.rt,end_key_resp.duration,participant,session,date,expName,psychopyVersion,frameRate,
,,,,,,,,,,,,,,18.030444699979853,18.030444699979853,s,0.7830186000210233,None,,,,,,,,,,,,,,,,,,,,,,,,,,,,,,,Sabrina_ZB216,001,2024-02-27_16h34.31.718,clock-master,2023.1.3,60.13149555471856,
,,,,,,,,,,,,,,,,,,,18.83782670000801,18.83782670000801,1,2.8345079999999143,None,,,,,,,,,,,,,,,,,,,,,,,,,,Sabrina_ZB216,001,2024-02-27_16h34.31.718,clock-master,2023.1.3,60.13149555471856,
1,9,48,左下,1,1,0,0,0,0,0,0,0,8,,,,,,,,,,,21.69734229997266,23.69167520001065,23.69167520001065,24.203399099991657,11,24.203399099991657,24.290127000014763,24.290127000014763,26.683972599974368,26.683972599974368,26.683972599974368,0,2,0,1.6289299999480136,None,26.683972599974368,27.18272609997075,,,,,,,,Sabrina_ZB216,001,2024-02-27_16h34.31.718,clock-master,2023.1.3,60.13149555471856,
1,10,28,右下,1,1,0,0,0,0,0,1,1,0,,,,,,,,,,,,,,,51,27.18272609997075,27.282575300021563,27.282575300021563,29.67582709999988,29.67582709999988,29.67582709999988,1,1,1,1.7370954000507481,None,29.67582709999988,30.17490679997718,,,,,,,,Sabrina_ZB216,001,2024-02-27_16h34.31.718,clock-master,2023.1.3,60.13149555471856,
2,10,28,左下,0,2,0,0,0,0,0,2,2,1,,,,,,,,,,,,,,,42,30.17490679997718,30.274715700012166,30.274715700012166,32.66809110000031,32.66809110000031,32.66809110000031,1,2,1,1.9540614999714307,None,32.66809110000031,33.16715059999842,,,,,,,,Sabrina_ZB216,001,2024-02-27_16h34.31.718,clock-master,2023.1.3,60.13149555471856,
1,8,21,右下,1,1,0,0,0,0,0,3,3,9,,,,,,,,,,,,,,,70,33.16715059999842,33.26702520000981,33.26702520000981,35.66029869997874,35.66029869997874,35.66029869997874,1,1,1,1.654413799988106,None,35.66029869997874,36.159298499987926,,,,,,,,Sabrina_ZB216,001,2024-02-27_16h34.31.718,clock-master,2023.1.3,60.13149555471856,
2,15,23,左上,0,2,0,0,0,0,0,4,4,7,,,,,,,,,,,,,,,93,36.159298499987926,36.25918290001573,36.25918290001573,38.65240060002543,38.65240060002543,38.65240060002543,1,2,1,2.2695922999992035,None,38.65240060002543,39.15139169996837,,,,,,,,Sabrina_ZB216,001,2024-02-27_16h34.31.718,clock-master,2023.1.3,60.13149555471856,
2,10,49,左下,0,2,0,0,0,0,0,5,5,6,,,,,,,,,,,,,,,38,39.15139169996837,39.25126370001817,39.25126370001817,41.64446779998252,41.64446779998252,41.64446779998252,0,None,0,,,41.64446779998252,42.143601800024044,,,,,,,,Sabrina_ZB216,001,2024-02-27_16h34.31.718,clock-master,2023.1.3,60.13149555471856,
2,19,11,左下,0,2,0,0,0,0,0,6,6,4,,,,,,,,,,,,,,,74,42.143601800024044,42.24333690002095,42.24333690002095,44.637158299970906,44.637158299970906,44.637158299970906,1,2,1,1.235030900046695,None,44.637158299970906,45.13541809999151,,,,,,,,Sabrina_ZB216,001,2024-02-27_16h34.31.718,clock-master,2023.1.3,60.13149555471856,
2,19,17,左上,0,2,0,0,0,0,0,7,7,3,,,,,,,,,,,,,,,86,45.13541809999151,45.23563379998086,45.23563379998086,47.62872659997083,47.62872659997083,47.62872659997083,1,2,1,2.341354899981525,None,47.62872659997083,48.12789300002623,,,,,,,,Sabrina_ZB216,001,2024-02-27_16h34.31.718,clock-master,2023.1.3,60.13149555471856,
1,14,20,右下,1,1,0,0,0,0,0,8,8,5,,,,,,,,,,,,,,,8,48.12789300002623,48.22762189997593,48.22762189997593,50.621274399978574,50.621274399978574,50.621274399978574,1,1,1,1.755238300014753,None,50.621274399978574,51.11997090000659,,,,,,,,Sabrina_ZB216,001,2024-02-27_16h34.31.718,clock-master,2023.1.3,60.13149555471856,
1,16,24,右下,1,1,0,0,0,0,0,9,9,2,,,,,,,,,,,,,,,28,51.11997090000659,51.21942679997301,51.21942679997301,53.613403900002595,53.613403900002595,53.613403900002595,0,2,0,2.3033658000058495,None,,,,,,,,,,Sabrina_ZB216,001,2024-02-27_16h34.31.718,clock-master,2023.1.3,60.13149555471856,
,,,,,,0,0,0,0,,,,,,,,,,,,,,,,,,,,,,,,,,,,,,,,,53.613403900002595,83.56826420000289,,,,,,Sabrina_ZB216,001,2024-02-27_16h34.31.718,clock-master,2023.1.3,60.13149555471856,
2,19,18,左上,0,2,1,0,1,0,0,0,0,0,,,,,,,,,,,83.56826420000289,85.56244040001184,85.56244040001184,86.0660399000044,94,86.0660399000044,86.16108440002427,86.16108440002427,88.55481449997751,88.55481449997751,88.55481449997751,1,2,1,1.7550056000472978,None,88.55481449997751,89.05402330000652,,,,,,,,Sabrina_ZB216,001,2024-02-27_16h34.31.718,clock-master,2023.1.3,60.13149555471856,
2,11,39,左上,0,2,1,0,1,0,0,1,1,6,,,,,,,,,,,,,,,57,89.05402330000652,89.15379379998194,89.15379379998194,91.54715659999056,91.54715659999056,91.54715659999056,0,None,0,,,91.54715659999056,92.04553369997302,,,,,,,,Sabrina_ZB216,001,2024-02-27_16h34.31.718,clock-master,2023.1.3,60.13149555471856,
1,7,25,右下,1,1,1,0,1,0,0,2,2,5,,,,,,,,,,,,,,,84,92.04553369997302,92.14581909996923,92.14581909996923,94.53908439999213,94.53908439999213,94.53908439999213,1,1,1,1.7086659999913536,None,94.53908439999213,95.038048300019,,,,,,,,Sabrina_ZB216,001,2024-02-27_16h34.31.718,clock-master,2023.1.3,60.13149555471856,
2,19,10,左下,0,2,1,0,1,0,0,3,3,4,,,,,,,,,,,,,,,12,95.038048300019,95.13784709997708,95.13784709997708,97.5312116999994,97.5312116999994,97.5312116999994,1,2,1,1.5519619000260718,None,97.5312116999994,98.02985430002445,,,,,,,,Sabrina_ZB216,001,2024-02-27_16h34.31.718,clock-master,2023.1.3,60.13149555471856,
1,8,20,右下,1,1,1,0,1,0,0,4,4,8,,,,,,,,,,,,,,,69,98.02985430002445,98.12995239999145,98.12995239999145,100.52328999998281,100.52328999998281,100.52328999998281,1,1,1,1.7711798999807797,None,100.52328999998281,101.02213060000213,,,,,,,,Sabrina_ZB216,001,2024-02-27_16h34.31.718,clock-master,2023.1.3,60.13149555471856,
1,18,14,右上,1,1,1,0,1,0,0,5,5,7,,,,,,,,,,,,,,,0,101.02213060000213,101.12210390000837,101.12210390000837,103.51551609998569,103.51551609998569,103.51551609998569,1,1,1,1.7273338999948464,None,103.51551609998569,104.0146090000053,,,,,,,,Sabrina_ZB216,001,2024-02-27_16h34.31.718,clock-master,2023.1.3,60.13149555471856,
2,13,12,左下,0,2,1,0,1,0,0,6,6,1,,,,,,,,,,,,,,,80,104.0146090000053,104.1142894999939,104.1142894999939,106.50759970000945,106.50759970000945,106.50759970000945,1,2,1,1.4380249999812804,None,106.50759970000945,107.00630960002309,,,,,,,,Sabrina_ZB216,001,2024-02-27_16h34.31.718,clock-master,2023.1.3,60.13149555471856,
1,10,35,左下,1,1,1,0,1,0,0,7,7,3,,,,,,,,,,,,,,,21,107.00630960002309,107.10649669996928,107.10649669996928,109.50013910001144,109.50013910001144,109.50013910001144,0,None,0,,,109.50013910001144,109.99889300001087,,,,,,,,Sabrina_ZB216,001,2024-02-27_16h34.31.718,clock-master,2023.1.3,60.13149555471856,
2,13,57,右下,0,2,1,0,1,0,0,8,8,2,,,,,,,,,,,,,,,4,109.99889300001087,110.0985948999878,110.0985948999878,112.49233939999249,112.49233939999249,112.49233939999249,0,None,0,,,112.49233939999249,112.99107899999944,,,,,,,,Sabrina_ZB216,001,2024-02-27_16h34.31.718,clock-master,2023.1.3,60.13149555471856,
1,16,35,左下,1,1,1,0,1,0,0,9,9,9,,,,,,,,,,,,,,,19,112.99107899999944,113.09097830002429,113.09097830002429,115.48442280001473,115.48442280001473,115.48442280001473,0,None,0,,,,,,,,,,,,Sabrina_ZB216,001,2024-02-27_16h34.31.718,clock-master,2023.1.3,60.13149555471856,
,,,,,,1,0,1,0,,,,,,,,,,,,,,,,,,,,,,,,,,,,,,,,,115.48442280001473,145.43885929998942,,,,,,Sabrina_ZB216,001,2024-02-27_16h34.31.718,clock-master,2023.1.3,60.13149555471856,
1,16,48,左上,1,1,2,0,2,0,0,0,0,0,,,,,,,,,,,145.43885929998942,147.43365439999616,147.43365439999616,147.93690019997302,44,147.93690019997302,148.03226439998252,148.03226439998252,150.42583979998017,150.42583979998017,150.42583979998017,0,2,0,1.795427999983076,None,150.42583979998017,150.92484120000154,,,,,,,,Sabrina_ZB216,001,2024-02-27_16h34.31.718,clock-master,2023.1.3,60.13149555471856,
2,17,44,左上,0,2,2,0,2,0,0,1,1,8,,,,,,,,,,,,,,,78,150.92484120000154,151.024618299969,151.024618299969,153.41835649998393,153.41835649998393,153.41835649998393,1,2,1,1.786732500011567,None,153.41835649998393,153.91656079998938,,,,,,,,Sabrina_ZB216,001,2024-02-27_16h34.31.718,clock-master,2023.1.3,60.13149555471856,
2,13,21,右上,0,2,2,0,2,0,0,2,2,7,,,,,,,,,,,,,,,62,153.91656079998938,154.016732899996,154.016732899996,156.4100587000139,156.4100587000139,156.4100587000139,0,None,0,,,156.4100587000139,156.90896059997613,,,,,,,,Sabrina_ZB216,001,2024-02-27_16h34.31.718,clock-master,2023.1.3,60.13149555471856,
1,9,13,右上,1,1,2,0,2,0,0,3,3,4,,,,,,,,,,,,,,,36,156.90896059997613,157.00899339996977,157.00899339996977,159.4025082999724,159.4025082999724,159.4025082999724,1,1,1,1.1453405999927782,None,159.4025082999724,159.90120780002326,,,,,,,,Sabrina_ZB216,001,2024-02-27_16h34.31.718,clock-master,2023.1.3,60.13149555471856,
2,11,41,右下,0,2,2,0,2,0,0,4,4,1,,,,,,,,,,,,,,,7,159.90120780002326,160.00103959999979,160.00103959999979,162.3945751999854,162.3945751999854,162.3945751999854,0,1,0,1.2467495999881066,None,162.3945751999854,162.8930321999942,,,,,,,,Sabrina_ZB216,001,2024-02-27_16h34.31.718,clock-master,2023.1.3,60.13149555471856,
2,15,22,左上,0,2,2,0,2,0,0,5,5,2,,,,,,,,,,,,,,,54,162.8930321999942,162.9932417999953,162.9932417999953,165.3868277000147,165.3868277000147,165.3868277000147,1,2,1,1.5970800999784842,None,165.3868277000147,165.88546760001918,,,,,,,,Sabrina_ZB216,001,2024-02-27_16h34.31.718,clock-master,2023.1.3,60.13149555471856,
1,9,14,右上,1,1,2,0,2,0,0,6,6,6,,,,,,,,,,,,,,,31,165.88546760001918,165.98522590001812,165.98522590001812,168.37891540001146,168.37891540001146,168.37891540001146,1,1,1,1.8755344000528567,None,168.37891540001146,168.87770040001487,,,,,,,,Sabrina_ZB216,001,2024-02-27_16h34.31.718,clock-master,2023.1.3,60.13149555471856,
2,11,40,右下,0,2,2,0,2,0,0,7,7,5,,,,,,,,,,,,,,,82,168.87770040001487,168.97730199998477,168.97730199998477,171.37107079999987,171.37107079999987,171.37107079999987,1,2,1,2.1977973000030033,None,171.37107079999987,171.86939850001363,,,,,,,,Sabrina_ZB216,001,2024-02-27_16h34.31.718,clock-master,2023.1.3,60.13149555471856,
1,10,36,左下,1,1,2,0,2,0,0,8,8,3,,,,,,,,,,,,,,,67,171.86939850001363,171.9695289999945,171.9695289999945,174.36297590000322,174.36297590000322,174.36297590000322,0,None,0,,,174.36297590000322,174.86191089998465,,,,,,,,Sabrina_ZB216,001,2024-02-27_16h34.31.718,clock-master,2023.1.3,60.13149555471856,
1,8,56,左上,1,1,2,0,2,0,0,9,9,9,,,,,,,,,,,,,,,26,174.86191089998465,174.96180719998665,174.96180719998665,177.35573070001556,177.35573070001556,177.35573070001556,1,1,1,1.4993060000124387,None,,,,,,,,,,Sabrina_ZB216,001,2024-02-27_16h34.31.718,clock-master,2023.1.3,60.13149555471856,
,,,,,,2,0,2,0,,,,,,,,,,,,,,,,,,,,,,,,,,,,,,,,,177.35573070001556,207.30956249998417,,,,,,Sabrina_ZB216,001,2024-02-27_16h34.31.718,clock-master,2023.1.3,60.13149555471856,
2,15,41,右下,0,2,3,0,3,0,0,0,0,7,,,,,,,,,,,207.30956249998417,209.30465479998384,209.30465479998384,209.80784099997254,34,209.80784099997254,209.9029229999869,209.9029229999869,212.29674740001792,212.29674740001792,212.29674740001792,1,2,1,1.8510807999991812,None,212.29674740001792,212.79554969997844,,,,,,,,Sabrina_ZB216,001,2024-02-27_16h34.31.718,clock-master,2023.1.3,60.13149555471856,
1,9,17,右下,1,1,3,0,3,0,0,1,1,9,,,,,,,,,,,,,,,24,212.79554969997844,212.89562859997386,212.89562859997386,215.2887783999904,215.2887783999904,215.2887783999904,1,1,1,1.2647645000251941,None,215.2887783999904,215.78785800002515,,,,,,,,Sabrina_ZB216,001,2024-02-27_16h34.31.718,clock-master,2023.1.3,60.13149555471856,
2,13,13,左下,0,2,3,0,3,0,0,2,2,3,,,,,,,,,,,,,,,50,215.78785800002515,215.88772970001446,215.88772970001446,218.2810882999911,218.2810882999911,218.2810882999911,1,2,1,1.5407229000120424,None,218.2810882999911,218.7799965000013,,,,,,,,Sabrina_ZB216,001,2024-02-27_16h34.31.718,clock-master,2023.1.3,60.13149555471856,
2,19,54,右下,0,2,3,0,3,0,0,3,3,8,,,,,,,,,,,,,,,81,218.7799965000013,218.87971000000834,218.87971000000834,221.27362779999385,221.27362779999385,221.27362779999385,1,2,1,1.6624508999520913,None,221.27362779999385,221.7722621000139,,,,,,,,Sabrina_ZB216,001,2024-02-27_16h34.31.718,clock-master,2023.1.3,60.13149555471856,
1,9,16,右下,1,1,3,0,3,0,0,4,4,4,,,,,,,,,,,,,,,6,221.7722621000139,221.8716362999985,221.8716362999985,224.26594700000715,224.26594700000715,224.26594700000715,1,1,1,1.737390799971763,None,224.26594700000715,224.76423739996972,,,,,,,,Sabrina_ZB216,001,2024-02-27_16h34.31.718,clock-master,2023.1.3,60.13149555471856,
1,16,6,右上,1,1,3,0,3,0,0,5,5,6,,,,,,,,,,,,,,,79,224.76423739996972,224.8637873000116,224.8637873000116,227.25780329998815,227.25780329998815,227.25780329998815,1,1,1,1.7805714999558404,None,227.25780329998815,227.756447999971,,,,,,,,Sabrina_ZB216,001,2024-02-27_16h34.31.718,clock-master,2023.1.3,60.13149555471856,
1,10,17,右下,1,1,3,0,3,0,0,6,6,0,,,,,,,,,,,,,,,41,227.756447999971,227.85592920001363,227.85592920001363,230.2494555999874,230.2494555999874,230.2494555999874,1,1,1,1.6738230000482872,None,230.2494555999874,230.74840149999363,,,,,,,,Sabrina_ZB216,001,2024-02-27_16h34.31.718,clock-master,2023.1.3,60.13149555471856,
2,11,50,右下,0,2,3,0,3,0,0,7,7,5,,,,,,,,,,,,,,,87,230.74840149999363,230.84806960000424,230.84806960000424,233.24213249998866,233.24213249998866,233.24213249998866,1,2,1,1.8823928000056185,None,233.24213249998866,233.74041359999683,,,,,,,,Sabrina_ZB216,001,2024-02-27_16h34.31.718,clock-master,2023.1.3,60.13149555471856,
1,7,26,右下,1,1,3,0,3,0,0,8,8,1,,,,,,,,,,,,,,,71,233.74041359999683,233.84019700001227,233.84019700001227,236.23383589996956,236.23383589996956,236.23383589996956,0,None,0,,,236.23383589996956,236.73279899999034,,,,,,,,Sabrina_ZB216,001,2024-02-27_16h34.31.718,clock-master,2023.1.3,60.13149555471856,
2,10,48,左下,0,2,3,0,3,0,0,9,9,2,,,,,,,,,,,,,,,30,236.73279899999034,236.83278990001418,236.83278990001418,239.22634140000446,239.22634140000446,239.22634140000446,0,1,0,1.6680322000174783,None,,,,,,,,,,Sabrina_ZB216,001,2024-02-27_16h34.31.718,clock-master,2023.1.3,60.13149555471856,
,,,,,,3,0,3,0,,,,,,,,,,,,,,,,,,,,,,,,,,,,,,,,,239.22634140000446,269.1812336000148,,,,,,Sabrina_ZB216,001,2024-02-27_16h34.31.718,clock-master,2023.1.3,60.13149555471856,
2,11,38,左上,0,2,4,0,4,0,0,0,0,0,,,,,,,,,,,269.1812336000148,271.1759568999987,271.1759568999987,271.6792654999881,56,271.6792654999881,271.7743533999892,271.7743533999892,274.16792209999403,274.16792209999403,274.16792209999403,0,1,0,1.734970899997279,None,274.16792209999403,274.6666840999969,,,,,,,,Sabrina_ZB216,001,2024-02-27_16h34.31.718,clock-master,2023.1.3,60.13149555471856,
2,10,38,右上,0,2,4,0,4,0,0,1,1,1,,,,,,,,,,,,,,,73,274.6666840999969,274.7662026999751,274.7662026999751,277.16016440000385,277.16016440000385,277.16016440000385,1,2,1,1.7122165000182576,None,277.16016440000385,277.6590089999954,,,,,,,,Sabrina_ZB216,001,2024-02-27_16h34.31.718,clock-master,2023.1.3,60.13149555471856,
1,16,5,右上,1,1,4,0,4,0,0,2,2,3,,,,,,,,,,,,,,,1,277.6590089999954,277.7582851999905,277.7582851999905,280.1523517000023,280.1523517000023,280.1523517000023,1,1,1,1.3130054000066593,None,280.1523517000023,280.6509940000251,,,,,,,,Sabrina_ZB216,001,2024-02-27_16h34.31.718,clock-master,2023.1.3,60.13149555471856,
1,7,19,右下,1,1,4,0,4,0,0,3,3,4,,,,,,,,,,,,,,,17,280.6509940000251,280.75084180000704,280.75084180000704,283.14443949999986,283.14443949999986,283.14443949999986,1,1,1,1.7490426999866031,None,283.14443949999986,283.64305790001526,,,,,,,,Sabrina_ZB216,001,2024-02-27_16h34.31.718,clock-master,2023.1.3,60.13149555471856,
1,14,43,左下,1,1,4,0,4,0,0,4,4,9,,,,,,,,,,,,,,,25,283.64305790001526,283.74292809999315,283.74292809999315,286.1362233000109,286.1362233000109,286.1362233000109,1,1,1,1.9231076000141911,None,286.1362233000109,286.63497169996845,,,,,,,,Sabrina_ZB216,001,2024-02-27_16h34.31.718,clock-master,2023.1.3,60.13149555471856,
2,11,58,右上,0,2,4,0,4,0,0,5,5,6,,,,,,,,,,,,,,,88,286.63497169996845,286.7351373999845,286.7351373999845,289.1288540000096,289.1288540000096,289.1288540000096,1,2,1,1.404833399981726,None,289.1288540000096,289.6276133999927,,,,,,,,Sabrina_ZB216,001,2024-02-27_16h34.31.718,clock-master,2023.1.3,60.13149555471856,
2,15,52,左下,0,2,4,0,4,0,0,6,6,5,,,,,,,,,,,,,,,77,289.6276133999927,289.7269725999795,289.7269725999795,292.120874300017,292.120874300017,292.120874300017,1,2,1,1.9027951000025496,None,292.120874300017,292.61967400001595,,,,,,,,Sabrina_ZB216,001,2024-02-27_16h34.31.718,clock-master,2023.1.3,60.13149555471856,
1,10,3,右上,1,1,4,0,4,0,0,7,7,8,,,,,,,,,,,,,,,48,292.61967400001595,292.7194272999768,292.7194272999768,295.11298799997894,295.11298799997894,295.11298799997894,1,1,1,0.9471088999998756,None,295.11298799997894,295.6116771000088,,,,,,,,Sabrina_ZB216,001,2024-02-27_16h34.31.718,clock-master,2023.1.3,60.13149555471856,
2,10,56,右上,0,2,4,0,4,0,0,8,8,7,,,,,,,,,,,,,,,9,295.6116771000088,295.7114152999711,295.7114152999711,298.1051355000236,298.1051355000236,298.1051355000236,1,2,1,1.8166800000471994,None,298.1051355000236,298.60360089997994,,,,,,,,Sabrina_ZB216,001,2024-02-27_16h34.31.718,clock-master,2023.1.3,60.13149555471856,
1,7,18,右下,1,1,4,0,4,0,0,9,9,2,,,,,,,,,,,,,,,39,298.60360089997994,298.70333370001754,298.70333370001754,301.0971720999805,301.0971720999805,301.0971720999805,0,None,0,,,,,,,,,,,,Sabrina_ZB216,001,2024-02-27_16h34.31.718,clock-master,2023.1.3,60.13149555471856,
,,,,,,4,0,4,0,,,,,,,,,,,,,,,,,,,,,,,,,,,,,,,,,301.0971720999805,331.0519230000209,,,,,,Sabrina_ZB216,001,2024-02-27_16h34.31.718,clock-master,2023.1.3,60.13149555471856,
1,18,39,左下,1,1,5,0,5,0,0,0,0,6,,,,,,,,,,,331.0519230000209,333.0469553999719,333.0469553999719,333.550488399982,75,333.550488399982,333.64548269996885,333.64548269996885,336.0387548999861,336.0387548999861,336.0387548999861,0,None,0,,,336.0387548999861,336.5376514000236,,,,,,,,Sabrina_ZB216,001,2024-02-27_16h34.31.718,clock-master,2023.1.3,60.13149555471856,
1,8,55,左上,1,1,5,0,5,0,0,1,1,3,,,,,,,,,,,,,,,58,336.5376514000236,336.63718229997903,336.63718229997903,339.0310885999934,339.0310885999934,339.0310885999934,1,1,1,1.6386169000179507,None,339.0310885999934,339.52983830001904,,,,,,,,Sabrina_ZB216,001,2024-02-27_16h34.31.718,clock-master,2023.1.3,60.13149555471856,
1,14,51,左上,1,1,5,0,5,0,0,2,2,7,,,,,,,,,,,,,,,92,339.52983830001904,339.6297059999779,339.6297059999779,342.0232736999751,342.0232736999751,342.0232736999751,1,1,1,0.7792987999855541,None,342.0232736999751,342.5219397000037,,,,,,,,Sabrina_ZB216,001,2024-02-27_16h34.31.718,clock-master,2023.1.3,60.13149555471856,
2,17,53,右下,0,2,5,0,5,0,0,3,3,2,,,,,,,,,,,,,,,2,342.5219397000037,342.6215113999788,342.6215113999788,345.01537619996816,345.01537619996816,345.01537619996816,1,2,1,1.5676014000200666,None,345.01537619996816,345.5143880000105,,,,,,,,Sabrina_ZB216,001,2024-02-27_16h34.31.718,clock-master,2023.1.3,60.13149555471856,
1,14,50,左上,1,1,5,0,5,0,0,4,4,8,,,,,,,,,,,,,,,63,345.5143880000105,345.61413649999304,345.61413649999304,348.00755799998296,348.00755799998296,348.00755799998296,1,1,1,1.3759443999733776,None,348.00755799998296,348.5062408000231,,,,,,,,Sabrina_ZB216,001,2024-02-27_16h34.31.718,clock-master,2023.1.3,60.13149555471856,
1,14,13,右上,1,1,5,0,5,0,0,5,5,9,,,,,,,,,,,,,,,65,348.5062408000231,348.6058026999817,348.6058026999817,350.9993776999763,350.9993776999763,350.9993776999763,1,1,1,1.091177600028459,None,350.9993776999763,351.4981088999775,,,,,,,,Sabrina_ZB216,001,2024-02-27_16h34.31.718,clock-master,2023.1.3,60.13149555471856,
2,15,40,右下,0,2,5,0,5,0,0,6,6,4,,,,,,,,,,,,,,,47,351.4981088999775,351.5979194000247,351.5979194000247,353.99178480001865,353.99178480001865,353.99178480001865,1,2,1,2.0539353000349365,None,353.99178480001865,354.49052940000547,,,,,,,,Sabrina_ZB216,001,2024-02-27_16h34.31.718,clock-master,2023.1.3,60.13149555471856,
2,10,29,左下,0,2,5,0,5,0,0,7,7,0,,,,,,,,,,,,,,,40,354.49052940000547,354.59041930001695,354.59041930001695,356.98433250002563,356.98433250002563,356.98433250002563,1,2,1,1.987617400009185,None,356.98433250002563,357.48287250002613,,,,,,,,Sabrina_ZB216,001,2024-02-27_16h34.31.718,clock-master,2023.1.3,60.13149555471856,
2,17,11,左上,0,2,5,0,5,0,0,8,8,5,,,,,,,,,,,,,,,16,357.48287250002613,357.5826509000035,357.5826509000035,359.9762085999828,359.9762085999828,359.9762085999828,1,2,1,1.5812172999721952,None,359.9762085999828,360.4746041999897,,,,,,,,Sabrina_ZB216,001,2024-02-27_16h34.31.718,clock-master,2023.1.3,60.13149555471856,
2,13,20,右上,0,2,5,0,5,0,0,9,9,1,,,,,,,,,,,,,,,13,360.4746041999897,360.5747476000106,360.5747476000106,362.9683885999839,362.9683885999839,362.9683885999839,1,2,1,1.8488848999841139,None,,,,,,,,,,Sabrina_ZB216,001,2024-02-27_16h34.31.718,clock-master,2023.1.3,60.13149555471856,
,,,,,,5,0,5,0,,,,,,,,,,,,,,,,,,,,,,,,,,,,,,,,,362.9683885999839,392.92310459999135,,,,,,Sabrina_ZB216,001,2024-02-27_16h34.31.718,clock-master,2023.1.3,60.13149555471856,
2,11,49,右上,0,2,6,0,6,0,0,0,0,3,,,,,,,,,,,392.92310459999135,394.9177496000193,394.9177496000193,395.41985289996956,95,395.41985289996956,395.51594080001814,395.51594080001814,397.90958669997053,397.90958669997053,397.90958669997053,1,2,1,1.1678867999580689,None,397.90958669997053,398.40839649998816,,,,,,,,Sabrina_ZB216,001,2024-02-27_16h34.31.718,clock-master,2023.1.3,60.13149555471856,
1,18,13,右上,1,1,6,0,6,0,0,1,1,7,,,,,,,,,,,,,,,3,398.40839649998816,398.5086386000039,398.5086386000039,400.90214080002625,400.90214080002625,400.90214080002625,1,1,1,0.9631740999757312,None,400.90214080002625,401.40063089999603,,,,,,,,Sabrina_ZB216,001,2024-02-27_16h34.31.718,clock-master,2023.1.3,60.13149555471856,
2,17,34,左上,0,2,6,0,6,0,0,2,2,4,,,,,,,,,,,,,,,83,401.40063089999603,401.5007733000093,401.5007733000093,403.89415800001007,403.89415800001007,403.89415800001007,1,2,1,1.3141414999845438,None,403.89415800001007,404.3926759000169,,,,,,,,Sabrina_ZB216,001,2024-02-27_16h34.31.718,clock-master,2023.1.3,60.13149555471856,
1,18,26,右下,1,1,6,0,6,0,0,3,3,5,,,,,,,,,,,,,,,52,404.3926759000169,404.49282639997546,404.49282639997546,406.88607539999066,406.88607539999066,406.88607539999066,1,1,1,2.193264800007455,None,406.88607539999066,407.3850284999935,,,,,,,,Sabrina_ZB216,001,2024-02-27_16h34.31.718,clock-master,2023.1.3,60.13149555471856,
1,8,37,左下,1,1,6,0,6,0,0,4,4,1,,,,,,,,,,,,,,,91,407.3850284999935,407.48474230000284,407.48474230000284,409.87844709999627,409.87844709999627,409.87844709999627,0,None,0,,,409.87844709999627,410.37699000001885,,,,,,,,Sabrina_ZB216,001,2024-02-27_16h34.31.718,clock-master,2023.1.3,60.13149555471856,
1,16,36,左下,1,1,6,0,6,0,0,5,5,6,,,,,,,,,,,,,,,46,410.37699000001885,410.4770533000119,410.4770533000119,412.87073039996903,412.87073039996903,412.87073039996903,1,1,1,1.4315721999737434,None,412.87073039996903,413.3695122000063,,,,,,,,Sabrina_ZB216,001,2024-02-27_16h34.31.718,clock-master,2023.1.3,60.13149555471856,
2,13,32,左上,0,2,6,0,6,0,0,6,6,2,,,,,,,,,,,,,,,43,413.3695122000063,413.4691885000211,413.4691885000211,415.86293160001514,415.86293160001514,415.86293160001514,1,2,1,1.6919649000046775,None,415.86293160001514,416.3614032000187,,,,,,,,Sabrina_ZB216,001,2024-02-27_16h34.31.718,clock-master,2023.1.3,60.13149555471856,
2,19,55,右下,0,2,6,0,6,0,0,7,7,0,,,,,,,,,,,,,,,45,416.3614032000187,416.46143460000167,416.46143460000167,418.8549428000115,418.8549428000115,418.8549428000115,1,2,1,1.2909978000097908,None,418.8549428000115,419.3535786999855,,,,,,,,Sabrina_ZB216,001,2024-02-27_16h34.31.718,clock-master,2023.1.3,60.13149555471856,
2,13,56,右下,0,2,6,0,6,0,0,8,8,9,,,,,,,,,,,,,,,22,419.3535786999855,419.4535483000218,419.4535483000218,421.8470896999934,421.8470896999934,421.8470896999934,1,2,1,1.5873447000049055,None,421.8470896999934,422.34556220000377,,,,,,,,Sabrina_ZB216,001,2024-02-27_16h34.31.718,clock-master,2023.1.3,60.13149555471856,
1,18,25,右下,1,1,6,0,6,0,0,9,9,8,,,,,,,,,,,,,,,60,422.34556220000377,422.4453807999962,422.4453807999962,424.83947569999145,424.83947569999145,424.83947569999145,1,1,1,1.4458661999669857,None,,,,,,,,,,Sabrina_ZB216,001,2024-02-27_16h34.31.718,clock-master,2023.1.3,60.13149555471856,
,,,,,,6,0,6,0,,,,,,,,,,,,,,,,,,,,,,,,,,,,,,,,,424.83947569999145,454.79423900000984,,,,,,Sabrina_ZB216,001,2024-02-27_16h34.31.718,clock-master,2023.1.3,60.13149555471856,
2,17,29,左下,0,2,7,0,7,0,0,0,0,5,,,,,,,,,,,454.79423900000984,456.7884355999995,456.7884355999995,457.292191000015,20,457.292191000015,457.3872814999777,457.3872814999777,459.7809315000195,459.7809315000195,459.7809315000195,1,2,1,1.8500613000360318,None,459.7809315000195,460.279617000022,,,,,,,,Sabrina_ZB216,001,2024-02-27_16h34.31.718,clock-master,2023.1.3,60.13149555471856,
1,16,23,右下,1,1,7,0,7,0,0,1,1,4,,,,,,,,,,,,,,,61,460.279617000022,460.37932710000314,460.37932710000314,462.77306709997356,462.77306709997356,462.77306709997356,1,1,1,1.3291841999744065,None,462.77306709997356,463.271650700015,,,,,,,,Sabrina_ZB216,001,2024-02-27_16h34.31.718,clock-master,2023.1.3,60.13149555471856,
1,16,47,左上,1,1,7,0,7,0,0,2,2,0,,,,,,,,,,,,,,,5,463.271650700015,463.3715085000149,463.3715085000149,465.76518549997127,465.76518549997127,465.76518549997127,1,1,1,1.7497503000195138,None,465.76518549997127,466.26369859999977,,,,,,,,Sabrina_ZB216,001,2024-02-27_16h34.31.718,clock-master,2023.1.3,60.13149555471856,
1,10,29,右下,1,1,7,0,7,0,0,3,3,7,,,,,,,,,,,,,,,37,466.26369859999977,466.3637646000134,466.3637646000134,468.7571628000005,468.7571628000005,468.7571628000005,1,1,1,1.713228800042998,None,468.7571628000005,469.2559655000223,,,,,,,,Sabrina_ZB216,001,2024-02-27_16h34.31.718,clock-master,2023.1.3,60.13149555471856,
1,14,14,右上,1,1,7,0,7,0,0,4,4,3,,,,,,,,,,,,,,,18,469.2559655000223,469.3559693999705,469.3559693999705,471.7492494999897,471.7492494999897,471.7492494999897,1,1,1,1.8090025000274181,None,471.7492494999897,472.2482210000162,,,,,,,,Sabrina_ZB216,001,2024-02-27_16h34.31.718,clock-master,2023.1.3,60.13149555471856,
1,8,25,右下,1,1,7,0,7,0,0,5,5,2,,,,,,,,,,,,,,,66,472.2482210000162,472.3472915000166,472.3472915000166,474.7418291000067,474.7418291000067,474.7418291000067,1,1,1,1.739712500013411,None,474.7418291000067,475.2404790999717,,,,,,,,Sabrina_ZB216,001,2024-02-27_16h34.31.718,clock-master,2023.1.3,60.13149555471856,
2,13,31,左上,0,2,7,0,7,0,0,6,6,6,,,,,,,,,,,,,,,59,475.2404790999717,475.3400726999971,475.3400726999971,477.733827500022,477.733827500022,477.733827500022,0,None,0,,,477.733827500022,478.2322449000203,,,,,,,,Sabrina_ZB216,001,2024-02-27_16h34.31.718,clock-master,2023.1.3,60.13149555471856,
2,15,51,左下,0,2,7,0,7,0,0,7,7,8,,,,,,,,,,,,,,,35,478.2322449000203,478.33235939999577,478.33235939999577,480.7259679000126,480.7259679000126,480.7259679000126,1,2,1,1.8872142999898642,None,480.7259679000126,481.224335899984,,,,,,,,Sabrina_ZB216,001,2024-02-27_16h34.31.718,clock-master,2023.1.3,60.13149555471856,
2,15,9,右下,0,2,7,0,7,0,0,8,8,1,,,,,,,,,,,,,,,64,481.224335899984,481.3241751000169,481.3241751000169,483.71784689999186,483.71784689999186,483.71784689999186,1,2,1,1.4685003000195138,None,483.71784689999186,484.21645060001174,,,,,,,,Sabrina_ZB216,001,2024-02-27_16h34.31.718,clock-master,2023.1.3,60.13149555471856,
2,17,12,左上,0,2,7,0,7,0,0,9,9,9,,,,,,,,,,,,,,,89,484.21645060001174,484.3166167999734,484.3166167999734,486.7102672000183,486.7102672000183,486.7102672000183,1,2,1,1.440317300031893,None,,,,,,,,,,Sabrina_ZB216,001,2024-02-27_16h34.31.718,clock-master,2023.1.3,60.13149555471856,
,,,,,,7,0,7,0,,,,,,,,,,,,,,,,,,,,,,,,,,,,,,,,,486.7102672000183,516.6649844999774,,,,,,Sabrina_ZB216,001,2024-02-27_16h34.31.718,clock-master,2023.1.3,60.13149555471856,
,,,,,,,,,,,,,,,,,,,,,,,,,,,,,,,,,,,,,,,,,,,,516.6649844999774,516.6649844999774,q,16.31910630001221,None,Sabrina_ZB216,001,2024-02-27_16h34.31.718,clock-master,2023.1.3,60.13149555471856,
