Run,Block,Weight,Stimulus,TargetType,CorrectResponse,StimType,BlockType,block.thisRepN,block.thisTrialN,block.thisN,block.thisIndex,trials.thisRepN,trials.thisTrialN,trials.thisN,trials.thisIndex,trials_2.thisRepN,trials_2.thisTrialN,trials_2.thisN,trials_2.thisIndex,trigger_txt.started,trigger_resp.started,trigger_resp.keys,trigger_resp.rt,trigger_resp.duration,instr_txt.started,prepared_resp.started,prepared_resp.keys,prepared_resp.rt,prepared_resp.duration,prep_instr.started,target.started,(iti_duration),(stim_duration),image.started,key_resp.started,corr_var,key_resp.keys,key_resp.rt,key_resp.duration,trial_fixation.started,prep_instr_2.started,target_2.started,rest_txt.started,participant,session,date,expName,psychopyVersion,frameRate
,,,,,,,,,,,,,,,,,,,,18.0471488,18.0471488,s,0.6441681,None,,,,,,,,,,,,,,,,,,,,Jocelyn_ZB216,1,2024-02-16_16h35.25.185,nback-master,2023.1.3,60.04516597
,,,,,,,,,,,,,,,,,,,,,,,,,18.7131753,18.7131753,1,0.7443524,None,,,,,,,,,,,,,,,Jocelyn_ZB216,1,2024-02-16_16h35.25.185,nback-master,2023.1.3,60.04516597
1,1,1,BP_002_BP10_BA.png,nonlure,nontarget,Body,2-Back,0,0,0,0,0,0,0,0,,,,,,,,,,,,,,,19.6256143,19.6256143,0.5001353,1.9065923,22.0886234,22.0886234,1,2,1.1547714,None,23.9952157,,,,Jocelyn_ZB216,1,2024-02-16_16h35.25.185,nback-master,2023.1.3,60.04516597
1,1,1,BP_001_BP1_BA.png,nonlure,nontarget,Body,2-Back,0,0,0,0,0,1,1,1,,,,,,,,,,,,,,,,,0.9044573,1.9992332,24.495351,24.495351,1,2,0.5346701,None,26.4945842,,,,Jocelyn_ZB216,1,2024-02-16_16h35.25.185,nback-master,2023.1.3,60.04516597
1,1,1,BP_006_BP2_BA.png,nonlure,nontarget,Body,2-Back,0,0,0,0,0,2,2,2,,,,,,,,,,,,,,,,,0.5003522,1.5950925,27.3990415,27.3990415,0,1,0.4263659,None,28.994134,,,,Jocelyn_ZB216,1,2024-02-16_16h35.25.185,nback-master,2023.1.3,60.04516597
1,1,1,BP_001_BP1_BA.png,target,target,Body,2-Back,0,0,0,0,0,3,3,3,,,,,,,,,,,,,,,,,0.5889439,1.9993276,29.4944862,29.4944862,0,2,0.5430683,None,31.4938138,,,,Jocelyn_ZB216,1,2024-02-16_16h35.25.185,nback-master,2023.1.3,60.04516597
1,1,1,BP_005_BP19_BA.png,nonlure,nontarget,Body,2-Back,0,0,0,0,0,4,4,4,,,,,,,,,,,,,,,,,0.5970411,1.910289,32.0827577,32.0827577,1,2,0.3669989,None,33.9930467,,,,Jocelyn_ZB216,1,2024-02-16_16h35.25.185,nback-master,2023.1.3,60.04516597
1,1,1,BP_003_BP16_BA.png,nonlure,nontarget,Body,2-Back,0,0,0,0,0,5,5,5,,,,,,,,,,,,,,,,,0.5003618,1.9021149,34.5900878,34.5900878,1,2,0.4622607,None,36.4922027,,,,Jocelyn_ZB216,1,2024-02-16_16h35.25.185,nback-master,2023.1.3,60.04516597
1,1,1,BP_006_BP2_BA.png,lure,nontarget,Body,2-Back,0,0,0,0,0,6,6,6,,,,,,,,,,,,,,,,,0.5004447,1.9992873,36.9925645,36.9925645,1,2,0.4997005,None,38.9918518,,,,Jocelyn_ZB216,1,2024-02-16_16h35.25.185,nback-master,2023.1.3,60.04516597
1,1,1,BP_004_BP18_BA.png,nonlure,nontarget,Body,2-Back,0,0,0,0,0,7,7,7,,,,,,,,,,,,,,,,,0.5001451,1.9990166,39.4922965,39.4922965,0,1,0.5406213,None,41.4913131,,,,Jocelyn_ZB216,1,2024-02-16_16h35.25.185,nback-master,2023.1.3,60.04516597
1,1,1,BP_005_BP19_BA.png,lure,nontarget,Body,2-Back,0,0,0,0,0,8,8,8,,,,,,,,,,,,,,,,,0.5000663,1.9990588,41.9914582,41.9914582,1,2,1.1829231,None,43.990517,,,,Jocelyn_ZB216,1,2024-02-16_16h35.25.185,nback-master,2023.1.3,60.04516597
1,1,1,BP_004_BP18_BA.png,target,target,Body,2-Back,0,0,0,0,0,9,9,9,,,,,,,,,,,,,,,,,,1.9994414,44.4905833,44.4905833,0,None,,,46.4900247,,,,Jocelyn_ZB216,1,2024-02-16_16h35.25.185,nback-master,2023.1.3,60.04516597
1,2,1,FC_005_M3.png,nonlure,nontarget,Face,0-Back,0,0,0,0,,,,,0,0,0,0,,,,,,,,,,,,,0.5000578,1.7830106,49.7058934,49.7058934,0,None,,,51.488904,47.1113463,47.1113463,,Jocelyn_ZB216,1,2024-02-16_16h35.25.185,nback-master,2023.1.3,60.04516597
1,2,1,FC_001_M1.png,target,target,Face,0-Back,0,0,0,0,,,,,0,1,1,1,,,,,,,,,,,,,0.5053582,1.9988348,51.9889618,51.9889618,0,None,,,53.9877966,,,,Jocelyn_ZB216,1,2024-02-16_16h35.25.185,nback-master,2023.1.3,60.04516597
1,2,1,FC_003_M2.png,nonlure,nontarget,Face,0-Back,0,0,0,0,,,,,0,2,2,2,,,,,,,,,,,,,0.5978536,1.9943855,54.4931548,54.4931548,0,None,,,56.4875403,,,,Jocelyn_ZB216,1,2024-02-16_16h35.25.185,nback-master,2023.1.3,60.04516597
1,2,1,FC_004_F2.png,nonlure,nontarget,Face,0-Back,0,0,0,0,,,,,0,3,3,3,,,,,,,,,,,,,0.5005409,1.9012277,57.0853939,57.0853939,0,None,,,58.9866216,,,,Jocelyn_ZB216,1,2024-02-16_16h35.25.185,nback-master,2023.1.3,60.04516597
1,2,1,FC_004_F2.png,lure,nontarget,Face,0-Back,0,0,0,0,,,,,0,4,4,4,,,,,,,,,,,,,0.5005546,1.9988942,59.4871625,59.4871625,0,None,,,61.4860567,,,,Jocelyn_ZB216,1,2024-02-16_16h35.25.185,nback-master,2023.1.3,60.04516597
1,2,1,FC_001_M1.png,target,target,Face,0-Back,0,0,0,0,,,,,0,5,5,5,,,,,,,,,,,,,0.5063104,1.9992049,61.9866113,61.9866113,1,1,0.9588349,None,63.9858162,,,,Jocelyn_ZB216,1,2024-02-16_16h35.25.185,nback-master,2023.1.3,60.04516597
1,2,1,FC_006_F3.png,nonlure,nontarget,Face,0-Back,0,0,0,0,,,,,0,6,6,6,,,,,,,,,,,,,0.5002817,1.9928125,64.4921266,64.4921266,1,2,0.4083727,None,66.4849391,,,,Jocelyn_ZB216,1,2024-02-16_16h35.25.185,nback-master,2023.1.3,60.04516597
1,2,1,FC_006_F3.png,lure,nontarget,Face,0-Back,0,0,0,0,,,,,0,7,7,7,,,,,,,,,,,,,0.4999313,1.9994128,66.9852208,66.9852208,1,2,0.5824492,None,68.9846336,,,,Jocelyn_ZB216,1,2024-02-16_16h35.25.185,nback-master,2023.1.3,60.04516597
1,2,1,FC_003_M2.png,lure,nontarget,Face,0-Back,0,0,0,0,,,,,0,8,8,8,,,,,,,,,,,,,0.507936,1.9993469,69.4845649,69.4845649,1,2,0.5511339,None,71.4839118,,,,Jocelyn_ZB216,1,2024-02-16_16h35.25.185,nback-master,2023.1.3,60.04516597
1,2,1,FC_002_F1.png,nonlure,nontarget,Face,0-Back,0,0,0,0,,,,,0,9,9,9,,,,,,,,,,,,,,1.9915846,71.9918478,71.9918478,1,2,0.4603362,None,73.9834324,,,,Jocelyn_ZB216,1,2024-02-16_16h35.25.185,nback-master,2023.1.3,60.04516597
,,,,,,,,,,,,,,,,,,,,,,,,,,,,,,,,,0,,,,,,,,,,74.4830473,,,,,,
