Run,Block,Weight,Stimulus,TargetType,CorrectResponse,StimType,BlockType,block.thisRepN,block.thisTrialN,block.thisN,block.thisIndex,trials.thisRepN,trials.thisTrialN,trials.thisN,trials.thisIndex,trials_2.thisRepN,trials_2.thisTrialN,trials_2.thisN,trials_2.thisIndex,trigger_txt.started,trigger_resp.started,trigger_resp.keys,trigger_resp.rt,trigger_resp.duration,instr_txt.started,prepared_resp.started,prepared_resp.keys,prepared_resp.rt,prepared_resp.duration,prep_instr.started,target.started,image.started,key_resp.started,corr_var,key_resp.keys,trial_fixation.started,key_resp.rt,key_resp.duration,prep_instr_2.started,target_2.started,rest_txt.started,end_txt.started,end_key_resp.started,end_key_resp.keys,end_key_resp.rt,end_key_resp.duration,participant,session,date,expName,psychopyVersion,frameRate,
,,,,,,,,,,,,,,,,,,,,13.02101120000043,13.02101120000043,s,0.777126799997859,None,,,,,,,,,,,,,,,,,,,,,,,testing,001,2024-02-14_14h50.54.056,nback-master,2023.1.3,59.92577593361052,
,,,,,,,,,,,,,,,,,,,,,,,,,13.828396500000963,13.828396500000963,1,0.5933275999977923,None,,,,,,,,,,,,,,,,,,testing,001,2024-02-14_14h50.54.056,nback-master,2023.1.3,59.92577593361052,
1,1,1,BP_002_BP10_BA.png,nonlure,nontarget,Body,2-Back,0,0,0,0,0,0,0,0,,,,,,,,,,,,,,,14.451572400001169,14.451572400001169,16.98123940000005,16.98123940000005,0,None,18.950967800001308,,,,,,,,,,,testing,001,2024-02-14_14h50.54.056,nback-master,2023.1.3,59.92577593361052,
1,1,1,BP_001_BP1_BA.png,nonlure,nontarget,Body,2-Back,0,0,0,0,0,1,1,1,,,,,,,,,,,,,,,,,19.45168460000059,19.45168460000059,0,None,21.45399620000171,,,,,,,,,,,testing,001,2024-02-14_14h50.54.056,nback-master,2023.1.3,59.92577593361052,
1,1,1,BP_006_BP2_BA.png,nonlure,nontarget,Body,2-Back,0,0,0,0,0,2,2,2,,,,,,,,,,,,,,,,,21.954499900000883,21.954499900000883,,1,23.956958300001133,0.4193723999978829,None,,,,,,,,,testing,001,2024-02-14_14h50.54.056,nback-master,2023.1.3,59.92577593361052,
1,1,1,BP_001_BP1_BA.png,target,target,Body,2-Back,0,0,0,0,0,3,3,3,,,,,,,,,,,,,,,,,24.45734900000025,24.45734900000025,1,1,26.45985070000097,0.8518922999992355,None,,,,,,,,,testing,001,2024-02-14_14h50.54.056,nback-master,2023.1.3,59.92577593361052,
1,1,1,BP_005_BP19_BA.png,nonlure,nontarget,Body,2-Back,0,0,0,0,0,4,4,4,,,,,,,,,,,,,,,,,26.960488800001258,26.960488800001258,0,None,28.962748800000554,,,,,,,,,,,testing,001,2024-02-14_14h50.54.056,nback-master,2023.1.3,59.92577593361052,
1,1,1,BP_003_BP16_BA.png,nonlure,nontarget,Body,2-Back,0,0,0,0,0,5,5,5,,,,,,,,,,,,,,,,,29.46338420000029,29.46338420000029,0,None,31.4489506000009,,,,,,,,,,,testing,001,2024-02-14_14h50.54.056,nback-master,2023.1.3,59.92577593361052,
1,1,1,BP_006_BP2_BA.png,lure,nontarget,Body,2-Back,0,0,0,0,0,6,6,6,,,,,,,,,,,,,,,,,31.94956700000148,31.94956700000148,0,None,33.95188130000133,,,,,,,,,,,testing,001,2024-02-14_14h50.54.056,nback-master,2023.1.3,59.92577593361052,
1,1,1,BP_004_BP18_BA.png,nonlure,nontarget,Body,2-Back,0,0,0,0,0,7,7,7,,,,,,,,,,,,,,,,,34.45249250000052,34.45249250000052,,1,36.45475179999994,1.0570614999996906,None,,,,,,,,,testing,001,2024-02-14_14h50.54.056,nback-master,2023.1.3,59.92577593361052,
1,1,1,BP_005_BP19_BA.png,lure,nontarget,Body,2-Back,0,0,0,0,0,8,8,8,,,,,,,,,,,,,,,,,36.95539960000133,36.95539960000133,0,None,38.957642000001215,,,,,,,,,,,testing,001,2024-02-14_14h50.54.056,nback-master,2023.1.3,59.92577593361052,
1,1,1,BP_004_BP18_BA.png,target,target,Body,2-Back,0,0,0,0,0,9,9,9,,,,,,,,,,,,,,,,,39.45815130000119,39.45815130000119,1,1,41.46092430000135,0.9237561999980244,None,,,,,,,,,testing,001,2024-02-14_14h50.54.056,nback-master,2023.1.3,59.92577593361052,
1,2,1,FC_005_M3.png,nonlure,nontarget,Face,0-Back,0,0,0,0,,,,,0,0,0,0,,,,,,,,,,,,,44.4816950000004,44.4816950000004,0,None,46.44944270000087,,,41.9716040000003,41.9716040000003,,,,,,,testing,001,2024-02-14_14h50.54.056,nback-master,2023.1.3,59.92577593361052,
1,2,1,FC_001_M1.png,target,target,Face,0-Back,0,0,0,0,,,,,0,1,1,1,,,,,,,,,,,,,46.949937400000636,46.949937400000636,1,1,48.95228750000024,0.560164699998495,None,,,,,,,,,testing,001,2024-02-14_14h50.54.056,nback-master,2023.1.3,59.92577593361052,
1,2,1,FC_003_M2.png,nonlure,nontarget,Face,0-Back,0,0,0,0,,,,,0,2,2,2,,,,,,,,,,,,,49.45296280000002,49.45296280000002,0,None,51.45510120000108,,,,,,,,,,,testing,001,2024-02-14_14h50.54.056,nback-master,2023.1.3,59.92577593361052,
1,2,1,FC_004_F2.png,nonlure,nontarget,Face,0-Back,0,0,0,0,,,,,0,3,3,3,,,,,,,,,,,,,51.95635949999996,51.95635949999996,0,None,53.95827260000078,,,,,,,,,,,testing,001,2024-02-14_14h50.54.056,nback-master,2023.1.3,59.92577593361052,
1,2,1,FC_004_F2.png,lure,nontarget,Face,0-Back,0,0,0,0,,,,,0,4,4,4,,,,,,,,,,,,,54.45930610000141,54.45930610000141,0,None,56.46087729999999,,,,,,,,,,,testing,001,2024-02-14_14h50.54.056,nback-master,2023.1.3,59.92577593361052,
1,2,1,FC_001_M1.png,target,target,Face,0-Back,0,0,0,0,,,,,0,5,5,5,,,,,,,,,,,,,56.96159140000054,56.96159140000054,1,1,58.94717000000128,0.5967356999972253,None,,,,,,,,,testing,001,2024-02-14_14h50.54.056,nback-master,2023.1.3,59.92577593361052,
1,2,1,FC_006_F3.png,nonlure,nontarget,Face,0-Back,0,0,0,0,,,,,0,6,6,6,,,,,,,,,,,,,59.44791880000048,59.44791880000048,0,None,61.44999120000102,,,,,,,,,,,testing,001,2024-02-14_14h50.54.056,nback-master,2023.1.3,59.92577593361052,
1,2,1,FC_006_F3.png,lure,nontarget,Face,0-Back,0,0,0,0,,,,,0,7,7,7,,,,,,,,,,,,,61.951202600001125,61.951202600001125,0,None,63.95298920000096,,,,,,,,,,,testing,001,2024-02-14_14h50.54.056,nback-master,2023.1.3,59.92577593361052,
1,2,1,FC_003_M2.png,lure,nontarget,Face,0-Back,0,0,0,0,,,,,0,8,8,8,,,,,,,,,,,,,64.45364540000082,64.45364540000082,0,None,66.45577150000099,,,,,,,,,,,testing,001,2024-02-14_14h50.54.056,nback-master,2023.1.3,59.92577593361052,
1,2,1,FC_002_F1.png,nonlure,nontarget,Face,0-Back,0,0,0,0,,,,,0,9,9,9,,,,,,,,,,,,,66.95697240000118,66.95697240000118,0,None,68.95878840000114,,,,,,,,,,,testing,001,2024-02-14_14h50.54.056,nback-master,2023.1.3,59.92577593361052,
,,,,,,,,0,0,0,0,,,,,,,,,,,,,,,,,,,,,,,,,,,,,,69.45929340000112,,,,,,testing,001,2024-02-14_14h50.54.056,nback-master,2023.1.3,59.92577593361052,
1,3,1,TO_001_TOOL1_BA.png,nonlure,nontarget,Tools,2-Back,1,0,1,0,0,0,0,0,,,,,,,,,,,,,,,84.45995690000018,84.45995690000018,87.00451730000168,87.00451730000168,0,None,88.948435100001,,,,,,,,,,,testing,001,2024-02-14_14h50.54.056,nback-master,2023.1.3,59.92577593361052,
1,3,1,TO_002_TOOL2_BA.png,nonlure,nontarget,Tools,2-Back,1,0,1,0,0,1,1,1,,,,,,,,,,,,,,,,,89.44909160000134,89.44909160000134,0,None,91.4512405000005,,,,,,,,,,,testing,001,2024-02-14_14h50.54.056,nback-master,2023.1.3,59.92577593361052,
1,3,1,TO_004_TOOL4_BA.png,nonlure,nontarget,Tools,2-Back,1,0,1,0,0,2,2,2,,,,,,,,,,,,,,,,,91.95193930000096,91.95193930000096,0,None,93.95418250000148,,,,,,,,,,,testing,001,2024-02-14_14h50.54.056,nback-master,2023.1.3,59.92577593361052,
1,3,1,TO_002_TOOL2_BA.png,target,target,Tools,2-Back,1,0,1,0,0,3,3,3,,,,,,,,,,,,,,,,,94.45482710000033,94.45482710000033,1,1,96.4571474000004,0.8004472999982681,None,,,,,,,,,testing,001,2024-02-14_14h50.54.056,nback-master,2023.1.3,59.92577593361052,
1,3,1,TO_001_TOOL1_BA.png,lure,nontarget,Tools,2-Back,1,0,1,0,0,4,4,4,,,,,,,,,,,,,,,,,96.95764500000041,96.95764500000041,0,None,98.95997630000056,,,,,,,,,,,testing,001,2024-02-14_14h50.54.056,nback-master,2023.1.3,59.92577593361052,
1,3,1,TO_004_TOOL4_BA.png,lure,nontarget,Tools,2-Back,1,0,1,0,0,5,5,5,,,,,,,,,,,,,,,,,99.46052610000152,99.46052610000152,0,None,101.46281310000086,,,,,,,,,,,testing,001,2024-02-14_14h50.54.056,nback-master,2023.1.3,59.92577593361052,
1,3,1,TO_006_TOOL6_BA.png,nonlure,nontarget,Tools,2-Back,1,0,1,0,0,6,6,6,,,,,,,,,,,,,,,,,101.96336990000054,101.96336990000054,0,None,103.94908800000121,,,,,,,,,,,testing,001,2024-02-14_14h50.54.056,nback-master,2023.1.3,59.92577593361052,
1,3,1,TO_005_TOOL5_BA.png,nonlure,nontarget,Tools,2-Back,1,0,1,0,0,7,7,7,,,,,,,,,,,,,,,,,104.44968590000099,104.44968590000099,0,None,106.45192850000058,,,,,,,,,,,testing,001,2024-02-14_14h50.54.056,nback-master,2023.1.3,59.92577593361052,
1,3,1,TO_006_TOOL6_BA.png,target,target,Tools,2-Back,1,0,1,0,0,8,8,8,,,,,,,,,,,,,,,,,106.95254000000023,106.95254000000023,1,1,108.95478860000003,0.7255098999976326,None,,,,,,,,,testing,001,2024-02-14_14h50.54.056,nback-master,2023.1.3,59.92577593361052,
1,3,1,TO_003_TOOL3_BA.png,nonlure,nontarget,Tools,2-Back,1,0,1,0,0,9,9,9,,,,,,,,,,,,,,,,,109.45551550000164,109.45551550000164,0,None,111.4578018000011,,,,,,,,,,,testing,001,2024-02-14_14h50.54.056,nback-master,2023.1.3,59.92577593361052,
1,4,1,BP_007_BP20_BA.png,target,target,Body,0-Back,1,0,1,0,,,,,0,0,0,0,,,,,,,,,,,,,114.49113980000038,114.49113980000038,,None,116.4468336000009,,,111.9584276000005,111.9584276000005,,,,,,,testing,001,2024-02-14_14h50.54.056,nback-master,2023.1.3,59.92577593361052,
1,4,1,BP_011_BP4_BA.png,nonlure,nontarget,Body,0-Back,1,0,1,0,,,,,0,1,1,1,,,,,,,,,,,,,116.94740440000169,116.94740440000169,0,None,118.94975090000116,,,,,,,,,,,testing,001,2024-02-14_14h50.54.056,nback-master,2023.1.3,59.92577593361052,
1,4,1,BP_010_BP3_BA.png,nonlure,nontarget,Body,0-Back,1,0,1,0,,,,,0,2,2,2,,,,,,,,,,,,,119.45033690000128,119.45033690000128,0,None,121.45245020000038,,,,,,,,,,,testing,001,2024-02-14_14h50.54.056,nback-master,2023.1.3,59.92577593361052,
1,4,1,BP_008_BP21_BA.png,nonlure,nontarget,Body,0-Back,1,0,1,0,,,,,0,3,3,3,,,,,,,,,,,,,121.9542188000014,121.9542188000014,0,None,123.95564780000132,,,,,,,,,,,testing,001,2024-02-14_14h50.54.056,nback-master,2023.1.3,59.92577593361052,
1,4,1,BP_011_BP4_BA.png,lure,nontarget,Body,0-Back,1,0,1,0,,,,,0,4,4,4,,,,,,,,,,,,,124.45647050000116,124.45647050000116,0,None,126.45855190000111,,,,,,,,,,,testing,001,2024-02-14_14h50.54.056,nback-master,2023.1.3,59.92577593361052,
1,4,1,BP_009_BP22_BA.png,nonlure,nontarget,Body,0-Back,1,0,1,0,,,,,0,5,5,5,,,,,,,,,,,,,126.9591089000005,126.9591089000005,0,None,128.96136450000085,,,,,,,,,,,testing,001,2024-02-14_14h50.54.056,nback-master,2023.1.3,59.92577593361052,
1,4,1,BP_009_BP22_BA.png,lure,nontarget,Body,0-Back,1,0,1,0,,,,,0,6,6,6,,,,,,,,,,,,,129.46202050000102,129.46202050000102,0,None,131.44763860000057,,,,,,,,,,,testing,001,2024-02-14_14h50.54.056,nback-master,2023.1.3,59.92577593361052,
1,4,1,BP_008_BP21_BA.png,lure,nontarget,Body,0-Back,1,0,1,0,,,,,0,7,7,7,,,,,,,,,,,,,131.9481534000006,131.9481534000006,0,None,133.95049460000155,,,,,,,,,,,testing,001,2024-02-14_14h50.54.056,nback-master,2023.1.3,59.92577593361052,
1,4,1,BP_007_BP20_BA.png,target,target,Body,0-Back,1,0,1,0,,,,,0,8,8,8,,,,,,,,,,,,,134.45106080000005,134.45106080000005,1,1,136.4534093000002,0.586851399999432,None,,,,,,,,,testing,001,2024-02-14_14h50.54.056,nback-master,2023.1.3,59.92577593361052,
1,4,1,BP_012_BP5_BA.png,nonlure,nontarget,Body,0-Back,1,0,1,0,,,,,0,9,9,9,,,,,,,,,,,,,136.95421230000102,136.95421230000102,0,None,138.95624510000016,,,,,,,,,,,testing,001,2024-02-14_14h50.54.056,nback-master,2023.1.3,59.92577593361052,
,,,,,,,,1,0,1,0,,,,,,,,,,,,,,,,,,,,,,,,,,,,,,139.45691360000092,,,,,,testing,001,2024-02-14_14h50.54.056,nback-master,2023.1.3,59.92577593361052,
1,5,1,PL_003_92016.png,nonlure,nontarget,Place,0-Back,2,0,2,0,0,0,0,0,,,,,,,,,,,,,,,154.45974139999998,154.45974139999998,156.99242500000037,156.99242500000037,0,None,158.96251500000108,,,,,,,,,,,testing,001,2024-02-14_14h50.54.056,nback-master,2023.1.3,59.92577593361052,
1,5,1,PL_003_92016.png,lure,nontarget,Place,0-Back,2,0,2,0,0,1,1,1,,,,,,,,,,,,,,,,,159.46314920000077,159.46314920000077,0,None,161.44875860000138,,,,,,,,,,,testing,001,2024-02-14_14h50.54.056,nback-master,2023.1.3,59.92577593361052,
1,5,1,PL_006_92025.png,nonlure,nontarget,Place,0-Back,2,0,2,0,0,2,2,2,,,,,,,,,,,,,,,,,161.94936880000023,161.94936880000023,0,None,163.95162170000003,,,,,,,,,,,testing,001,2024-02-14_14h50.54.056,nback-master,2023.1.3,59.92577593361052,
1,5,1,PL_001_92012.png,target,target,Place,0-Back,2,0,2,0,0,3,3,3,,,,,,,,,,,,,,,,,164.4521018000014,164.4521018000014,1,1,166.4544128000016,1.3933532999999443,None,,,,,,,,,testing,001,2024-02-14_14h50.54.056,nback-master,2023.1.3,59.92577593361052,
1,5,1,PL_004_92023.png,nonlure,nontarget,Place,0-Back,2,0,2,0,0,4,4,4,,,,,,,,,,,,,,,,,166.9551859000003,166.9551859000003,0,None,168.95729329999995,,,,,,,,,,,testing,001,2024-02-14_14h50.54.056,nback-master,2023.1.3,59.92577593361052,
1,5,1,PL_005_92024.png,nonlure,nontarget,Place,0-Back,2,0,2,0,0,5,5,5,,,,,,,,,,,,,,,,,169.4579898000011,169.4579898000011,0,None,171.46030830000018,,,,,,,,,,,testing,001,2024-02-14_14h50.54.056,nback-master,2023.1.3,59.92577593361052,
1,5,1,PL_001_92012.png,target,target,Place,0-Back,2,0,2,0,0,6,6,6,,,,,,,,,,,,,,,,,171.96076620000167,171.96076620000167,1,1,173.96315120000145,0.8530152999974234,None,,,,,,,,,testing,001,2024-02-14_14h50.54.056,nback-master,2023.1.3,59.92577593361052,
1,5,1,PL_002_92014.png,nonlure,nontarget,Place,0-Back,2,0,2,0,0,7,7,7,,,,,,,,,,,,,,,,,174.44715890000043,174.44715890000043,0,None,176.4493622000009,,,,,,,,,,,testing,001,2024-02-14_14h50.54.056,nback-master,2023.1.3,59.92577593361052,
1,5,1,PL_004_92023.png,lure,nontarget,Place,0-Back,2,0,2,0,0,8,8,8,,,,,,,,,,,,,,,,,176.94985710000037,176.94985710000037,0,None,178.95224360000066,,,,,,,,,,,testing,001,2024-02-14_14h50.54.056,nback-master,2023.1.3,59.92577593361052,
1,5,1,PL_006_92025.png,lure,nontarget,Place,0-Back,2,0,2,0,0,9,9,9,,,,,,,,,,,,,,,,,179.45298619999994,179.45298619999994,0,None,181.45515380000143,,,,,,,,,,,testing,001,2024-02-14_14h50.54.056,nback-master,2023.1.3,59.92577593361052,
1,6,1,FC_010_F5.png,nonlure,nontarget,Face,2-Back,2,0,2,0,,,,,0,0,0,0,,,,,,,,,,,,,184.49406679999993,184.49406679999993,0,None,186.4607992000001,,,181.95916620000025,181.95916620000025,,,,,,,testing,001,2024-02-14_14h50.54.056,nback-master,2023.1.3,59.92577593361052,
1,6,1,FC_012_F6.png,nonlure,nontarget,Face,2-Back,2,0,2,0,,,,,0,1,1,1,,,,,,,,,,,,,186.96288070000082,186.96288070000082,0,None,188.94704730000012,,,,,,,,,,,testing,001,2024-02-14_14h50.54.056,nback-master,2023.1.3,59.92577593361052,
1,6,1,FC_010_F5.png,target,target,Face,2-Back,2,0,2,0,,,,,0,2,2,2,,,,,,,,,,,,,189.4483519000005,189.4483519000005,1,1,191.4499882,0.5172933999983798,None,,,,,,,,,testing,001,2024-02-14_14h50.54.056,nback-master,2023.1.3,59.92577593361052,
1,6,1,FC_008_F4.png,nonlure,nontarget,Face,2-Back,2,0,2,0,,,,,0,3,3,3,,,,,,,,,,,,,191.95075429999997,191.95075429999997,0,None,193.9528674000012,,,,,,,,,,,testing,001,2024-02-14_14h50.54.056,nback-master,2023.1.3,59.92577593361052,
1,6,1,FC_012_F6.png,lure,nontarget,Face,2-Back,2,0,2,0,,,,,0,4,4,4,,,,,,,,,,,,,194.45409990000007,194.45409990000007,,1,196.45575009999993,0.6552265999980591,None,,,,,,,,,testing,001,2024-02-14_14h50.54.056,nback-master,2023.1.3,59.92577593361052,
1,6,1,FC_008_F4.png,target,target,Face,2-Back,2,0,2,0,,,,,0,5,5,5,,,,,,,,,,,,,196.9565859000013,196.9565859000013,1,1,198.958711700001,0.8407459999980347,None,,,,,,,,,testing,001,2024-02-14_14h50.54.056,nback-master,2023.1.3,59.92577593361052,
1,6,1,FC_007_M4.png,nonlure,nontarget,Face,2-Back,2,0,2,0,,,,,0,6,6,6,,,,,,,,,,,,,199.45947740000156,199.45947740000156,0,None,201.46162189999995,,,,,,,,,,,testing,001,2024-02-14_14h50.54.056,nback-master,2023.1.3,59.92577593361052,
1,6,1,FC_007_M4.png,lure,nontarget,Face,2-Back,2,0,2,0,,,,,0,7,7,7,,,,,,,,,,,,,201.9623833000005,201.9623833000005,0,None,203.9476876000008,,,,,,,,,,,testing,001,2024-02-14_14h50.54.056,nback-master,2023.1.3,59.92577593361052,
1,6,1,FC_009_M5.png,nonlure,nontarget,Face,2-Back,2,0,2,0,,,,,0,8,8,8,,,,,,,,,,,,,204.44853690000127,204.44853690000127,,1,206.45062640000106,0.8130110999973112,None,,,,,,,,,testing,001,2024-02-14_14h50.54.056,nback-master,2023.1.3,59.92577593361052,
1,6,1,FC_011_M6.png,nonlure,nontarget,Face,2-Back,2,0,2,0,,,,,0,9,9,9,,,,,,,,,,,,,206.95130550000067,206.95130550000067,0,None,208.95342990000063,,,,,,,,,,,testing,001,2024-02-14_14h50.54.056,nback-master,2023.1.3,59.92577593361052,
,,,,,,,,2,0,2,0,,,,,,,,,,,,,,,,,,,,,,,,,,,,,,209.45403760000045,,,,,,testing,001,2024-02-14_14h50.54.056,nback-master,2023.1.3,59.92577593361052,
1,7,1,TO_010_TOOL10_BA.png,nonlure,nontarget,Tools,0-Back,3,0,3,0,0,0,0,0,,,,,,,,,,,,,,,224.45479630000045,224.45479630000045,226.98726370000077,226.98726370000077,0,None,228.95997590000115,,,,,,,,,,,testing,001,2024-02-14_14h50.54.056,nback-master,2023.1.3,59.92577593361052,
1,7,1,TO_009_TOOL9_BA.png,nonlure,nontarget,Tools,0-Back,3,0,3,0,0,1,1,1,,,,,,,,,,,,,,,,,229.4604126000013,229.4604126000013,0,None,231.46277850000115,,,,,,,,,,,testing,001,2024-02-14_14h50.54.056,nback-master,2023.1.3,59.92577593361052,
1,7,1,TO_009_TOOL9_BA.png,lure,nontarget,Tools,0-Back,3,0,3,0,0,2,2,2,,,,,,,,,,,,,,,,,231.963383100001,231.963383100001,0,None,233.94898860000103,,,,,,,,,,,testing,001,2024-02-14_14h50.54.056,nback-master,2023.1.3,59.92577593361052,
1,7,1,TO_008_TOOL8_BA.png,nonlure,nontarget,Tools,0-Back,3,0,3,0,0,3,3,3,,,,,,,,,,,,,,,,,234.44954600000165,234.44954600000165,0,None,236.45194820000142,,,,,,,,,,,testing,001,2024-02-14_14h50.54.056,nback-master,2023.1.3,59.92577593361052,
1,7,1,TO_011_TOOL11_BA.png,nonlure,nontarget,Tools,0-Back,3,0,3,0,0,4,4,4,,,,,,,,,,,,,,,,,236.9527876000011,236.9527876000011,0,None,238.9547562000007,,,,,,,,,,,testing,001,2024-02-14_14h50.54.056,nback-master,2023.1.3,59.92577593361052,
1,7,1,TO_012_TOOL12_BA.png,nonlure,nontarget,Tools,0-Back,3,0,3,0,0,5,5,5,,,,,,,,,,,,,,,,,239.4553293000008,239.4553293000008,0,None,241.45758270000078,,,,,,,,,,,testing,001,2024-02-14_14h50.54.056,nback-master,2023.1.3,59.92577593361052,
1,7,1,TO_010_TOOL10_BA.png,lure,nontarget,Tools,0-Back,3,0,3,0,0,6,6,6,,,,,,,,,,,,,,,,,241.9581691000003,241.9581691000003,0,None,243.96050040000046,,,,,,,,,,,testing,001,2024-02-14_14h50.54.056,nback-master,2023.1.3,59.92577593361052,
1,7,1,TO_007_TOOL7_BA.png,target,target,Tools,0-Back,3,0,3,0,0,7,7,7,,,,,,,,,,,,,,,,,244.46116770000117,244.46116770000117,1,1,246.4633380000014,0.6010169999990467,None,,,,,,,,,testing,001,2024-02-14_14h50.54.056,nback-master,2023.1.3,59.92577593361052,
1,7,1,TO_008_TOOL8_BA.png,lure,nontarget,Tools,0-Back,3,0,3,0,0,8,8,8,,,,,,,,,,,,,,,,,246.94722970000112,246.94722970000112,0,None,248.9495134000008,,,,,,,,,,,testing,001,2024-02-14_14h50.54.056,nback-master,2023.1.3,59.92577593361052,
1,7,1,TO_007_TOOL7_BA.png,target,target,Tools,0-Back,3,0,3,0,0,9,9,9,,,,,,,,,,,,,,,,,249.45013480000125,249.45013480000125,1,1,251.45240150000063,0.6192034999985481,None,,,,,,,,,testing,001,2024-02-14_14h50.54.056,nback-master,2023.1.3,59.92577593361052,
1,8,1,PL_007_92026.png,nonlure,nontarget,Place,2-Back,3,0,3,0,,,,,0,0,0,0,,,,,,,,,,,,,254.48820070000147,254.48820070000147,0,None,256.45862040000065,,,251.95298619999994,251.95298619999994,,,,,,,testing,001,2024-02-14_14h50.54.056,nback-master,2023.1.3,59.92577593361052,
1,8,1,PL_007_92026.png,lure,nontarget,Place,2-Back,3,0,3,0,,,,,0,1,1,1,,,,,,,,,,,,,256.96078170000146,256.96078170000146,0,None,258.9613762000008,,,,,,,,,,,testing,001,2024-02-14_14h50.54.056,nback-master,2023.1.3,59.92577593361052,
1,8,1,PL_010_92038.png,nonlure,nontarget,Place,2-Back,3,0,3,0,,,,,0,2,2,2,,,,,,,,,,,,,259.4618524000016,259.4618524000016,0,None,261.4474112000007,,,,,,,,,,,testing,001,2024-02-14_14h50.54.056,nback-master,2023.1.3,59.92577593361052,
1,8,1,PL_009_92037.png,nonlure,nontarget,Place,2-Back,3,0,3,0,,,,,0,3,3,3,,,,,,,,,,,,,261.94798080000146,261.94798080000146,0,None,263.95040920000065,,,,,,,,,,,testing,001,2024-02-14_14h50.54.056,nback-master,2023.1.3,59.92577593361052,
1,8,1,PL_010_92038.png,target,target,Place,2-Back,3,0,3,0,,,,,0,4,4,4,,,,,,,,,,,,,264.4508886000003,264.4508886000003,1,1,266.45322000000124,0.6596811999988859,None,,,,,,,,,testing,001,2024-02-14_14h50.54.056,nback-master,2023.1.3,59.92577593361052,
1,8,1,PL_009_92037.png,target,target,Place,2-Back,3,0,3,0,,,,,0,5,5,5,,,,,,,,,,,,,266.9539663000014,266.9539663000014,1,1,268.9558751000004,0.6996196999989479,None,,,,,,,,,testing,001,2024-02-14_14h50.54.056,nback-master,2023.1.3,59.92577593361052,
1,8,1,PL_008_92033.png,nonlure,nontarget,Place,2-Back,3,0,3,0,,,,,0,6,6,6,,,,,,,,,,,,,269.45675120000124,269.45675120000124,0,None,271.45898540000053,,,,,,,,,,,testing,001,2024-02-14_14h50.54.056,nback-master,2023.1.3,59.92577593361052,
1,8,1,PL_012_92047.png,nonlure,nontarget,Place,2-Back,3,0,3,0,,,,,0,7,7,7,,,,,,,,,,,,,271.95959460000086,271.95959460000086,0,None,273.96196840000084,,,,,,,,,,,testing,001,2024-02-14_14h50.54.056,nback-master,2023.1.3,59.92577593361052,
1,8,1,PL_012_92047.png,lure,nontarget,Place,2-Back,3,0,3,0,,,,,0,8,8,8,,,,,,,,,,,,,274.4623152000004,274.4623152000004,0,None,276.44802510000045,,,,,,,,,,,testing,001,2024-02-14_14h50.54.056,nback-master,2023.1.3,59.92577593361052,
1,8,1,PL_011_92044.png,nonlure,nontarget,Place,2-Back,3,0,3,0,,,,,0,9,9,9,,,,,,,,,,,,,276.9486525000011,276.9486525000011,0,None,278.9509869000012,,,,,,,,,,,testing,001,2024-02-14_14h50.54.056,nback-master,2023.1.3,59.92577593361052,
,,,,,,,,3,0,3,0,,,,,,,,,,,,,,,,,,,,,,,,,,,,,,279.4515571000011,,,,,,testing,001,2024-02-14_14h50.54.056,nback-master,2023.1.3,59.92577593361052,
2,1,None,TO_014_TOOL14_BA.png,nonlure,nontarget,Tools,2-Back,4,0,4,0,0,0,0,0,,,,,,,,,,,,,,,294.4543743000013,294.4543743000013,296.9849505000002,296.9849505000002,0,None,298.9572577000017,,,,,,,,,,,testing,001,2024-02-14_14h50.54.056,nback-master,2023.1.3,59.92577593361052,
2,1,None,TO_013_TOOL13_BA.png,nonlure,nontarget,Tools,2-Back,4,0,4,0,0,1,1,1,,,,,,,,,,,,,,,,,299.4577248000005,299.4577248000005,0,None,301.46024770000076,,,,,,,,,,,testing,001,2024-02-14_14h50.54.056,nback-master,2023.1.3,59.92577593361052,
2,1,None,TO_016_TOOL16_BA.png,nonlure,nontarget,Tools,2-Back,4,0,4,0,0,2,2,2,,,,,,,,,,,,,,,,,301.96068490000107,301.96068490000107,0,None,303.9630343000008,,,,,,,,,,,testing,001,2024-02-14_14h50.54.056,nback-master,2023.1.3,59.92577593361052,
2,1,None,TO_014_TOOL14_BA.png,lure,nontarget,Tools,2-Back,4,0,4,0,0,3,3,3,,,,,,,,,,,,,,,,,304.4469416000011,304.4469416000011,0,None,306.44934470000044,,,,,,,,,,,testing,001,2024-02-14_14h50.54.056,nback-master,2023.1.3,59.92577593361052,
2,1,None,TO_016_TOOL16_BA.png,target,target,Tools,2-Back,4,0,4,0,0,4,4,4,,,,,,,,,,,,,,,,,306.9497861,306.9497861,1,1,308.95219910000014,0.7361896999991586,None,,,,,,,,,testing,001,2024-02-14_14h50.54.056,nback-master,2023.1.3,59.92577593361052,
2,1,None,TO_018_TOOL18_BA.png,nonlure,nontarget,Tools,2-Back,4,0,4,0,0,5,5,5,,,,,,,,,,,,,,,,,309.45266100000117,309.45266100000117,0,None,311.4548055000014,,,,,,,,,,,testing,001,2024-02-14_14h50.54.056,nback-master,2023.1.3,59.92577593361052,
2,1,None,TO_017_TOOL17_BA.png,nonlure,nontarget,Tools,2-Back,4,0,4,0,0,6,6,6,,,,,,,,,,,,,,,,,311.9555999000004,311.9555999000004,0,None,313.9578153000002,,,,,,,,,,,testing,001,2024-02-14_14h50.54.056,nback-master,2023.1.3,59.92577593361052,
2,1,None,TO_018_TOOL18_BA.png,target,target,Tools,2-Back,4,0,4,0,0,7,7,7,,,,,,,,,,,,,,,,,314.45833100000164,314.45833100000164,1,1,316.46071030000167,0.5230190999991464,None,,,,,,,,,testing,001,2024-02-14_14h50.54.056,nback-master,2023.1.3,59.92577593361052,
2,1,None,TO_015_TOOL15_BA.png,nonlure,nontarget,Tools,2-Back,4,0,4,0,0,8,8,8,,,,,,,,,,,,,,,,,316.96139519999997,316.96139519999997,0,None,318.94706399999995,,,,,,,,,,,testing,001,2024-02-14_14h50.54.056,nback-master,2023.1.3,59.92577593361052,
2,1,None,TO_017_TOOL17_BA.png,lure,nontarget,Tools,2-Back,4,0,4,0,0,9,9,9,,,,,,,,,,,,,,,,,319.4475467000011,319.4475467000011,,1,321.4498932000006,0.6795313999973587,None,,,,,,,,,testing,001,2024-02-14_14h50.54.056,nback-master,2023.1.3,59.92577593361052,
2,2,None,BP_015_H10-T_BA.png,nonlure,nontarget,Body,0-Back,4,0,4,0,,,,,0,0,0,0,,,,,,,,,,,,,324.48463900000024,324.48463900000024,0,None,326.4555915000001,,,321.9531659000004,321.9531659000004,,,,,,,testing,001,2024-02-14_14h50.54.056,nback-master,2023.1.3,59.92577593361052,
2,2,None,BP_018_H13-T_BA.png,nonlure,nontarget,Body,0-Back,4,0,4,0,,,,,0,1,1,1,,,,,,,,,,,,,326.9566917000011,326.9566917000011,0,None,328.95855870000014,,,,,,,,,,,testing,001,2024-02-14_14h50.54.056,nback-master,2023.1.3,59.92577593361052,
2,2,None,BP_014_BP9_BA.png,nonlure,nontarget,Body,0-Back,4,0,4,0,,,,,0,2,2,2,,,,,,,,,,,,,329.45921400000043,329.45921400000043,0,None,331.4615268000016,,,,,,,,,,,testing,001,2024-02-14_14h50.54.056,nback-master,2023.1.3,59.92577593361052,
2,2,None,BP_018_H13-T_BA.png,lure,nontarget,Body,0-Back,4,0,4,0,,,,,0,3,3,3,,,,,,,,,,,,,331.96208710000064,331.96208710000064,0,None,333.9476949,,,,,,,,,,,testing,001,2024-02-14_14h50.54.056,nback-master,2023.1.3,59.92577593361052,
2,2,None,BP_013_BP7_BA.png,target,target,Body,0-Back,4,0,4,0,,,,,0,4,4,4,,,,,,,,,,,,,334.4480291,334.4480291,1,1,336.45052570000007,0.629663999998229,None,,,,,,,,,testing,001,2024-02-14_14h50.54.056,nback-master,2023.1.3,59.92577593361052,
2,2,None,BP_015_H10-T_BA.png,lure,nontarget,Body,0-Back,4,0,4,0,,,,,0,5,5,5,,,,,,,,,,,,,336.95103930000005,336.95103930000005,0,None,338.95330749999994,,,,,,,,,,,testing,001,2024-02-14_14h50.54.056,nback-master,2023.1.3,59.92577593361052,
2,2,None,BP_016_H11-T_BA.png,nonlure,nontarget,Body,0-Back,4,0,4,0,,,,,0,6,6,6,,,,,,,,,,,,,339.4542250000013,339.4542250000013,0,None,341.45616100000007,,,,,,,,,,,testing,001,2024-02-14_14h50.54.056,nback-master,2023.1.3,59.92577593361052,
2,2,None,BP_013_BP7_BA.png,target,target,Body,0-Back,4,0,4,0,,,,,0,7,7,7,,,,,,,,,,,,,341.95683439999993,341.95683439999993,1,1,343.9590642000003,0.5693895999993401,None,,,,,,,,,testing,001,2024-02-14_14h50.54.056,nback-master,2023.1.3,59.92577593361052,
2,2,None,BP_017_H12-T_BA.png,nonlure,nontarget,Body,0-Back,4,0,4,0,,,,,0,8,8,8,,,,,,,,,,,,,344.4596186000017,344.4596186000017,0,None,346.462023600001,,,,,,,,,,,testing,001,2024-02-14_14h50.54.056,nback-master,2023.1.3,59.92577593361052,
2,2,None,BP_014_BP9_BA.png,lure,nontarget,Body,0-Back,4,0,4,0,,,,,0,9,9,9,,,,,,,,,,,,,346.9629136000003,346.9629136000003,0,None,348.9482289000007,,,,,,,,,,,testing,001,2024-02-14_14h50.54.056,nback-master,2023.1.3,59.92577593361052,
,,,,,,,,4,0,4,0,,,,,,,,,,,,,,,,,,,,,,,,,,,,,,349.4488545000004,,,,,,testing,001,2024-02-14_14h50.54.056,nback-master,2023.1.3,59.92577593361052,
2,3,None,FC_015_M8.png,nonlure,nontarget,Face,2-Back,5,0,5,0,0,0,0,0,,,,,,,,,,,,,,,364.45247480000035,364.45247480000035,366.9881810000006,366.9881810000006,0,None,368.95469760000015,,,,,,,,,,,testing,001,2024-02-14_14h50.54.056,nback-master,2023.1.3,59.92577593361052,
2,3,None,FC_018_F9.png,nonlure,nontarget,Face,2-Back,5,0,5,0,0,1,1,1,,,,,,,,,,,,,,,,,369.45936390000134,369.45936390000134,0,None,371.45739180000055,,,,,,,,,,,testing,001,2024-02-14_14h50.54.056,nback-master,2023.1.3,59.92577593361052,
2,3,None,FC_018_F9.png,lure,nontarget,Face,2-Back,5,0,5,0,0,2,2,2,,,,,,,,,,,,,,,,,371.95904770000016,371.95904770000016,0,None,373.9605897000001,,,,,,,,,,,testing,001,2024-02-14_14h50.54.056,nback-master,2023.1.3,59.92577593361052,
2,3,None,FC_017_M9.png,nonlure,nontarget,Face,2-Back,5,0,5,0,0,3,3,3,,,,,,,,,,,,,,,,,374.4616801000011,374.4616801000011,0,None,376.46331080000164,,,,,,,,,,,testing,001,2024-02-14_14h50.54.056,nback-master,2023.1.3,59.92577593361052,
2,3,None,FC_017_M9.png,lure,nontarget,Face,2-Back,5,0,5,0,0,4,4,4,,,,,,,,,,,,,,,,,376.9473319000008,376.9473319000008,0,None,378.9494612000017,,,,,,,,,,,testing,001,2024-02-14_14h50.54.056,nback-master,2023.1.3,59.92577593361052,
2,3,None,FC_016_F8.png,nonlure,nontarget,Face,2-Back,5,0,5,0,0,5,5,5,,,,,,,,,,,,,,,,,379.4515743000011,379.4515743000011,0,None,381.4524310000015,,,,,,,,,,,testing,001,2024-02-14_14h50.54.056,nback-master,2023.1.3,59.92577593361052,
2,3,None,FC_013_M7.png,nonlure,nontarget,Face,2-Back,5,0,5,0,0,6,6,6,,,,,,,,,,,,,,,,,381.95316020000064,381.95316020000064,0,None,383.9553741,,,,,,,,,,,testing,001,2024-02-14_14h50.54.056,nback-master,2023.1.3,59.92577593361052,
2,3,None,FC_014_F7.png,nonlure,nontarget,Face,2-Back,5,0,5,0,0,7,7,7,,,,,,,,,,,,,,,,,384.45715250000103,384.45715250000103,0,None,386.458125000001,,,,,,,,,,,testing,001,2024-02-14_14h50.54.056,nback-master,2023.1.3,59.92577593361052,
2,3,None,FC_013_M7.png,target,target,Face,2-Back,5,0,5,0,0,8,8,8,,,,,,,,,,,,,,,,,386.9585341000002,386.9585341000002,1,1,388.96098620000157,0.7037343999982113,None,,,,,,,,,testing,001,2024-02-14_14h50.54.056,nback-master,2023.1.3,59.92577593361052,
2,3,None,FC_014_F7.png,target,target,Face,2-Back,5,0,5,0,0,9,9,9,,,,,,,,,,,,,,,,,389.46245270000145,389.46245270000145,1,1,391.4472071,0.6396721999990405,None,,,,,,,,,testing,001,2024-02-14_14h50.54.056,nback-master,2023.1.3,59.92577593361052,
2,4,None,TO_019_TOOL19_BA.png,target,target,Tools,0-Back,5,0,5,0,,,,,0,0,0,0,,,,,,,,,,,,,394.4805836000014,394.4805836000014,,None,396.45301670000117,,,391.9478306000001,391.9478306000001,,,,,,,testing,001,2024-02-14_14h50.54.056,nback-master,2023.1.3,59.92577593361052,
2,4,None,TO_024_TOOL24_BA.png,nonlure,nontarget,Tools,0-Back,5,0,5,0,,,,,0,1,1,1,,,,,,,,,,,,,396.9535547000014,396.9535547000014,0,None,398.95587760000126,,,,,,,,,,,testing,001,2024-02-14_14h50.54.056,nback-master,2023.1.3,59.92577593361052,
2,4,None,TO_019_TOOL19_BA.png,target,target,Tools,0-Back,5,0,5,0,,,,,0,2,2,2,,,,,,,,,,,,,399.4566816000006,399.4566816000006,1,1,401.45902090000163,0.6050179999983811,None,,,,,,,,,testing,001,2024-02-14_14h50.54.056,nback-master,2023.1.3,59.92577593361052,
2,4,None,TO_023_TOOL23_BA.png,nonlure,nontarget,Tools,0-Back,5,0,5,0,,,,,0,3,3,3,,,,,,,,,,,,,401.95946040000126,401.95946040000126,0,None,403.96198450000156,,,,,,,,,,,testing,001,2024-02-14_14h50.54.056,nback-master,2023.1.3,59.92577593361052,
2,4,None,TO_020_TOOL20_BA.png,nonlure,nontarget,Tools,0-Back,5,0,5,0,,,,,0,4,4,4,,,,,,,,,,,,,404.4668096000005,404.4668096000005,0,None,406.44842830000016,,,,,,,,,,,testing,001,2024-02-14_14h50.54.056,nback-master,2023.1.3,59.92577593361052,
2,4,None,TO_020_TOOL20_BA.png,lure,nontarget,Tools,0-Back,5,0,5,0,,,,,0,5,5,5,,,,,,,,,,,,,406.95184020000124,406.95184020000124,0,None,408.95138490000136,,,,,,,,,,,testing,001,2024-02-14_14h50.54.056,nback-master,2023.1.3,59.92577593361052,
2,4,None,TO_022_TOOL22_BA.png,nonlure,nontarget,Tools,0-Back,5,0,5,0,,,,,0,6,6,6,,,,,,,,,,,,,409.4557171000015,409.4557171000015,0,None,411.4542880000008,,,,,,,,,,,testing,001,2024-02-14_14h50.54.056,nback-master,2023.1.3,59.92577593361052,
2,4,None,TO_022_TOOL22_BA.png,lure,nontarget,Tools,0-Back,5,0,5,0,,,,,0,7,7,7,,,,,,,,,,,,,411.95870730000024,411.95870730000024,0,None,413.95655890000126,,,,,,,,,,,testing,001,2024-02-14_14h50.54.056,nback-master,2023.1.3,59.92577593361052,
2,4,None,TO_021_TOOL21_BA.png,nonlure,nontarget,Tools,0-Back,5,0,5,0,,,,,0,8,8,8,,,,,,,,,,,,,414.4583096000006,414.4583096000006,0,None,416.45941440000024,,,,,,,,,,,testing,001,2024-02-14_14h50.54.056,nback-master,2023.1.3,59.92577593361052,
2,4,None,TO_021_TOOL21_BA.png,lure,nontarget,Tools,0-Back,5,0,5,0,,,,,0,9,9,9,,,,,,,,,,,,,416.9601541000011,416.9601541000011,0,None,418.9623227000011,,,,,,,,,,,testing,001,2024-02-14_14h50.54.056,nback-master,2023.1.3,59.92577593361052,
,,,,,,,,5,0,5,0,,,,,,,,,,,,,,,,,,,,,,,,,,,,,,419.46287680000023,,,,,,testing,001,2024-02-14_14h50.54.056,nback-master,2023.1.3,59.92577593361052,
2,5,None,BP_020_H17-T_BA.png,nonlure,nontarget,Body,2-Back,6,0,6,0,0,0,0,0,,,,,,,,,,,,,,,434.4639444000004,434.4639444000004,436.9808084000015,436.9808084000015,0,None,438.95203740000034,,,,,,,,,,,testing,001,2024-02-14_14h50.54.056,nback-master,2023.1.3,59.92577593361052,
2,5,None,BP_019_H14-T_BA.png,nonlure,nontarget,Body,2-Back,6,0,6,0,0,1,1,1,,,,,,,,,,,,,,,,,439.4525871000005,439.4525871000005,0,None,441.45495950000077,,,,,,,,,,,testing,001,2024-02-14_14h50.54.056,nback-master,2023.1.3,59.92577593361052,
2,5,None,BP_020_H17-T_BA.png,target,target,Body,2-Back,6,0,6,0,0,2,2,2,,,,,,,,,,,,,,,,,441.95556040000156,441.95556040000156,1,1,443.95770020000055,0.6026454999991984,None,,,,,,,,,testing,001,2024-02-14_14h50.54.056,nback-master,2023.1.3,59.92577593361052,
2,5,None,BP_019_H14-T_BA.png,target,target,Body,2-Back,6,0,6,0,0,3,3,3,,,,,,,,,,,,,,,,,444.45855570000094,444.45855570000094,1,1,446.4606889000006,0.6036109999986365,None,,,,,,,,,testing,001,2024-02-14_14h50.54.056,nback-master,2023.1.3,59.92577593361052,
2,5,None,BP_024_H3-T_BA.png,nonlure,nontarget,Body,2-Back,6,0,6,0,0,4,4,4,,,,,,,,,,,,,,,,,446.97151010000016,446.97151010000016,0,None,448.94688660000065,,,,,,,,,,,testing,001,2024-02-14_14h50.54.056,nback-master,2023.1.3,59.92577593361052,
2,5,None,BP_024_H3-T_BA.png,lure,nontarget,Body,2-Back,6,0,6,0,0,5,5,5,,,,,,,,,,,,,,,,,449.4492312000002,449.4492312000002,,1,451.4498170000006,0.781072599998879,None,,,,,,,,,testing,001,2024-02-14_14h50.54.056,nback-master,2023.1.3,59.92577593361052,
2,5,None,BP_025_H5-T_BA.png,nonlure,nontarget,Body,2-Back,6,0,6,0,0,6,6,6,,,,,,,,,,,,,,,,,451.9521014000002,451.9521014000002,0,None,453.9526504000005,,,,,,,,,,,testing,001,2024-02-14_14h50.54.056,nback-master,2023.1.3,59.92577593361052,
2,5,None,BP_023_H25-T_BA.png,nonlure,nontarget,Body,2-Back,6,0,6,0,0,7,7,7,,,,,,,,,,,,,,,,,454.4559308000007,454.4559308000007,0,None,456.45554360000096,,,,,,,,,,,testing,001,2024-02-14_14h50.54.056,nback-master,2023.1.3,59.92577593361052,
2,5,None,BP_022_H24-T_BA.png,nonlure,nontarget,Body,2-Back,6,0,6,0,0,8,8,8,,,,,,,,,,,,,,,,,456.95815270000094,456.95815270000094,0,None,458.95853160000115,,,,,,,,,,,testing,001,2024-02-14_14h50.54.056,nback-master,2023.1.3,59.92577593361052,
2,5,None,BP_022_H24-T_BA.png,lure,nontarget,Body,2-Back,6,0,6,0,0,9,9,9,,,,,,,,,,,,,,,,,459.4591846000003,459.4591846000003,0,None,461.4614644000012,,,,,,,,,,,testing,001,2024-02-14_14h50.54.056,nback-master,2023.1.3,59.92577593361052,
2,6,None,PL_019_SCENE_05.png,nonlure,nontarget,Place,2-Back,6,0,6,0,,,,,0,0,0,0,,,,,,,,,,,,,464.4820832000005,464.4820832000005,0,None,466.4504031000015,,,461.9674707000013,461.9674707000013,,,,,,,testing,001,2024-02-14_14h50.54.056,nback-master,2023.1.3,59.92577593361052,
2,6,None,PL_017_SCENE_03.png,nonlure,nontarget,Place,2-Back,6,0,6,0,,,,,0,1,1,1,,,,,,,,,,,,,466.95220730000074,466.95220730000074,0,None,468.95332970000163,,,,,,,,,,,testing,001,2024-02-14_14h50.54.056,nback-master,2023.1.3,59.92577593361052,
2,6,None,PL_017_SCENE_03.png,lure,nontarget,Place,2-Back,6,0,6,0,,,,,0,2,2,2,,,,,,,,,,,,,469.4546008000016,469.4546008000016,0,None,471.4560463000016,,,,,,,,,,,testing,001,2024-02-14_14h50.54.056,nback-master,2023.1.3,59.92577593361052,
2,6,None,PL_016_SCENE_02.png,nonlure,nontarget,Place,2-Back,6,0,6,0,,,,,0,3,3,3,,,,,,,,,,,,,471.9573689000008,471.9573689000008,0,None,473.95897650000006,,,,,,,,,,,testing,001,2024-02-14_14h50.54.056,nback-master,2023.1.3,59.92577593361052,
2,6,None,PL_015_SCENE_01.png,nonlure,nontarget,Place,2-Back,6,0,6,0,,,,,0,4,4,4,,,,,,,,,,,,,474.4611145000017,474.4611145000017,0,None,476.4623197000001,,,,,,,,,,,testing,001,2024-02-14_14h50.54.056,nback-master,2023.1.3,59.92577593361052,
2,6,None,PL_016_SCENE_02.png,target,target,Place,2-Back,6,0,6,0,,,,,0,5,5,5,,,,,,,,,,,,,476.96282860000065,476.96282860000065,,None,478.94853970000077,,,,,,,,,,,testing,001,2024-02-14_14h50.54.056,nback-master,2023.1.3,59.92577593361052,
2,6,None,PL_015_SCENE_01.png,target,target,Place,2-Back,6,0,6,0,,,,,0,6,6,6,,,,,,,,,,,,,479.4537474000008,479.4537474000008,1,1,481.4511429000013,0.8253551999987394,None,,,,,,,,,testing,001,2024-02-14_14h50.54.056,nback-master,2023.1.3,59.92577593361052,
2,6,None,PL_020_SCENE_06.png,nonlure,nontarget,Place,2-Back,6,0,6,0,,,,,0,7,7,7,,,,,,,,,,,,,481.9547025000011,481.9547025000011,0,None,483.9541112000006,,,,,,,,,,,testing,001,2024-02-14_14h50.54.056,nback-master,2023.1.3,59.92577593361052,
2,6,None,PL_020_SCENE_06.png,lure,nontarget,Place,2-Back,6,0,6,0,,,,,0,8,8,8,,,,,,,,,,,,,484.4569857000006,484.4569857000006,0,None,486.4567713000015,,,,,,,,,,,testing,001,2024-02-14_14h50.54.056,nback-master,2023.1.3,59.92577593361052,
2,6,None,PL_018_SCENE_04.png,nonlure,nontarget,Place,2-Back,6,0,6,0,,,,,0,9,9,9,,,,,,,,,,,,,486.9587635000007,486.9587635000007,0,None,488.959761600001,,,,,,,,,,,testing,001,2024-02-14_14h50.54.056,nback-master,2023.1.3,59.92577593361052,
,,,,,,,,6,0,6,0,,,,,,,,,,,,,,,,,,,,,,,,,,,,,,489.460318200001,,,,,,testing,001,2024-02-14_14h50.54.056,nback-master,2023.1.3,59.92577593361052,
2,7,None,FC_024_F12.png,nonlure,nontarget,Face,0-Back,7,0,7,0,0,0,0,0,,,,,,,,,,,,,,,504.4650781,504.4650781,507.05486030000066,507.05486030000066,0,None,508.94946789999995,,,,,,,,,,,testing,001,2024-02-14_14h50.54.056,nback-master,2023.1.3,59.92577593361052,
2,7,None,FC_023_M12.png,nonlure,nontarget,Face,0-Back,7,0,7,0,0,1,1,1,,,,,,,,,,,,,,,,,509.4501901000003,509.4501901000003,0,None,511.4521913000008,,,,,,,,,,,testing,001,2024-02-14_14h50.54.056,nback-master,2023.1.3,59.92577593361052,
2,7,None,FC_020_F10.png,target,target,Face,0-Back,7,0,7,0,0,2,2,2,,,,,,,,,,,,,,,,,511.9530091000015,511.9530091000015,1,1,513.9552395999999,0.6616084999986924,None,,,,,,,,,testing,001,2024-02-14_14h50.54.056,nback-master,2023.1.3,59.92577593361052,
2,7,None,FC_024_F12.png,lure,nontarget,Face,0-Back,7,0,7,0,0,3,3,3,,,,,,,,,,,,,,,,,514.4560428000004,514.4560428000004,0,None,516.4580577000015,,,,,,,,,,,testing,001,2024-02-14_14h50.54.056,nback-master,2023.1.3,59.92577593361052,
2,7,None,FC_020_F10.png,target,target,Face,0-Back,7,0,7,0,0,4,4,4,,,,,,,,,,,,,,,,,516.9586936000014,516.9586936000014,1,1,518.9609462000008,0.5031844999994064,None,,,,,,,,,testing,001,2024-02-14_14h50.54.056,nback-master,2023.1.3,59.92577593361052,
2,7,None,FC_022_F11.png,nonlure,nontarget,Face,0-Back,7,0,7,0,0,5,5,5,,,,,,,,,,,,,,,,,519.4623103000013,519.4623103000013,0,None,521.4471435000014,,,,,,,,,,,testing,001,2024-02-14_14h50.54.056,nback-master,2023.1.3,59.92577593361052,
2,7,None,FC_023_M12.png,lure,nontarget,Face,0-Back,7,0,7,0,0,6,6,6,,,,,,,,,,,,,,,,,521.9476551000007,521.9476551000007,0,None,523.9500061000017,,,,,,,,,,,testing,001,2024-02-14_14h50.54.056,nback-master,2023.1.3,59.92577593361052,
2,7,None,FC_021_M11.png,nonlure,nontarget,Face,0-Back,7,0,7,0,0,7,7,7,,,,,,,,,,,,,,,,,524.4513123000015,524.4513123000015,0,None,526.4529222000001,,,,,,,,,,,testing,001,2024-02-14_14h50.54.056,nback-master,2023.1.3,59.92577593361052,
2,7,None,FC_021_M11.png,lure,nontarget,Face,0-Back,7,0,7,0,0,8,8,8,,,,,,,,,,,,,,,,,526.9537346000016,526.9537346000016,0,None,528.9557834000007,,,,,,,,,,,testing,001,2024-02-14_14h50.54.056,nback-master,2023.1.3,59.92577593361052,
2,7,None,FC_019_M10.png,nonlure,nontarget,Face,0-Back,7,0,7,0,0,9,9,9,,,,,,,,,,,,,,,,,529.4568295000008,529.4568295000008,0,None,531.458727700001,,,,,,,,,,,testing,001,2024-02-14_14h50.54.056,nback-master,2023.1.3,59.92577593361052,
2,8,None,PL_025_SCENE_18.png,nonlure,nontarget,Place,0-Back,7,0,7,0,,,,,0,0,0,0,,,,,,,,,,,,,534.4978201000013,534.4978201000013,0,None,536.447805400001,,,531.9635681,531.9635681,,,,,,,testing,001,2024-02-14_14h50.54.056,nback-master,2023.1.3,59.92577593361052,
2,8,None,PL_026_SCENE_24.png,nonlure,nontarget,Place,0-Back,7,0,7,0,,,,,0,1,1,1,,,,,,,,,,,,,536.9497223000017,536.9497223000017,0,None,538.950613500001,,,,,,,,,,,testing,001,2024-02-14_14h50.54.056,nback-master,2023.1.3,59.92577593361052,
2,8,None,PL_025_SCENE_18.png,lure,nontarget,Place,0-Back,7,0,7,0,,,,,0,2,2,2,,,,,,,,,,,,,539.4518740000003,539.4518740000003,,1,541.4535717000017,0.585876899998766,None,,,,,,,,,testing,001,2024-02-14_14h50.54.056,nback-master,2023.1.3,59.92577593361052,
2,8,None,PL_022_SCENE_08.png,nonlure,nontarget,Place,0-Back,7,0,7,0,,,,,0,3,3,3,,,,,,,,,,,,,541.9555966000007,541.9555966000007,0,None,543.9564818000017,,,,,,,,,,,testing,001,2024-02-14_14h50.54.056,nback-master,2023.1.3,59.92577593361052,
2,8,None,PL_026_SCENE_24.png,lure,nontarget,Place,0-Back,7,0,7,0,,,,,0,4,4,4,,,,,,,,,,,,,544.4579393000004,544.4579393000004,0,None,546.4593838000001,,,,,,,,,,,testing,001,2024-02-14_14h50.54.056,nback-master,2023.1.3,59.92577593361052,
2,8,None,PL_021_SCENE_07.png,target,target,Place,0-Back,7,0,7,0,,,,,0,5,5,5,,,,,,,,,,,,,546.9612273000002,546.9612273000002,1,1,548.9623943000006,0.7730335999985982,None,,,,,,,,,testing,001,2024-02-14_14h50.54.056,nback-master,2023.1.3,59.92577593361052,
2,8,None,PL_021_SCENE_07.png,target,target,Place,0-Back,7,0,7,0,,,,,0,6,6,6,,,,,,,,,,,,,549.4634603000013,549.4634603000013,1,1,551.4484274000006,0.6716084999989107,None,,,,,,,,,testing,001,2024-02-14_14h50.54.056,nback-master,2023.1.3,59.92577593361052,
2,8,None,PL_023_SCENE_09.png,nonlure,nontarget,Place,0-Back,7,0,7,0,,,,,0,7,7,7,,,,,,,,,,,,,551.9498922000002,551.9498922000002,0,None,553.9514255000013,,,,,,,,,,,testing,001,2024-02-14_14h50.54.056,nback-master,2023.1.3,59.92577593361052,
2,8,None,PL_024_SCENE_10.png,nonlure,nontarget,Place,0-Back,7,0,7,0,,,,,0,8,8,8,,,,,,,,,,,,,554.4520293000005,554.4520293000005,0,None,556.454321700001,,,,,,,,,,,testing,001,2024-02-14_14h50.54.056,nback-master,2023.1.3,59.92577593361052,
2,8,None,PL_022_SCENE_08.png,lure,nontarget,Place,0-Back,7,0,7,0,,,,,0,9,9,9,,,,,,,,,,,,,556.9555262000013,556.9555262000013,0,None,558.9570588000006,,,,,,,,,,,testing,001,2024-02-14_14h50.54.056,nback-master,2023.1.3,59.92577593361052,
,,,,,,,,7,0,7,0,,,,,,,,,,,,,,,,,,,,,,,,,,,,,,559.4576161000005,,,,,,testing,001,2024-02-14_14h50.54.056,nback-master,2023.1.3,59.92577593361052,
,,,,,,,,,,,,,,,,,,,,,,,,,,,,,,,,,,,,,,,,,,574.4583245000013,574.4583245000013,q,4.012112899998101,None,testing,001,2024-02-14_14h50.54.056,nback-master,2023.1.3,59.92577593361052,
