Run	Block	Weight	Stimulus	TargetType	CorrectResponse	StimType	BlockType	block.thisRepN	block.thisTrialN	block.thisN	block.thisIndex	trials.thisRepN	trials.thisTrialN	trials.thisN	trials.thisIndex	trials_2.thisRepN	trials_2.thisTrialN	trials_2.thisN	trials_2.thisIndex	trigger_txt.started	trigger_resp.started	trigger_resp.keys	trigger_resp.rt	instr_txt.started	prepared_resp.started	prepared_resp.keys	prepared_resp.rt	prep_instr.started	target.started	image.started	key_resp.started	corr_var	key_resp.keys	key_resp.rt	trial_fixation.started	prep_instr_2.started	target_2.started	rest_txt.started	end_txt.started	end_key_resp.started	end_key_resp.keys	end_key_resp.rt	participant	session	date	expName	psychopyVersion	frameRate
																				12.06466141	12.06466141	s	1.305064164																				Jocelyn_testing	1	2024-02-14_16h18.42.922	nback-master	2023.1.2	60.10418487
																								13.39723448	13.39723448	1	0.428251929																Jocelyn_testing	1	2024-02-14_16h18.42.922	nback-master	2023.1.2	60.10418487
1	1	1	BP_002_BP10_BA.png	nonlure	nontarget	Body	2-Back	0	0	0	0	0	0	0	0													13.86748293	13.86748293	16.39969175	16.39969175	1	2	1.250247238	18.36611673								Jocelyn_testing	1	2024-02-14_16h18.42.922	nback-master	2023.1.2	60.10418487
1	1	1	BP_001_BP1_BA.png	nonlure	nontarget	Body	2-Back	0	0	0	0	0	1	1	1															18.86634281	18.86634281	1	2	0.951368933	20.86600041								Jocelyn_testing	1	2024-02-14_16h18.42.922	nback-master	2023.1.2	60.10418487
1	1	1	BP_006_BP2_BA.png	nonlure	nontarget	Body	2-Back	0	0	0	0	0	2	2	2															21.36858626	21.36858626	1	2	1.049252982	23.3664235								Jocelyn_testing	1	2024-02-14_16h18.42.922	nback-master	2023.1.2	60.10418487
1	1	1	BP_001_BP1_BA.png	target	target	Body	2-Back	0	0	0	0	0	3	3	3															23.86967334	23.86967334	1	1	0.676428148	25.86646455								Jocelyn_testing	1	2024-02-14_16h18.42.922	nback-master	2023.1.2	60.10418487
1	1	1	BP_005_BP19_BA.png	nonlure	nontarget	Body	2-Back	0	0	0	0	0	4	4	4															26.36891954	26.36891954	1	2	0.760450377	28.36639499								Jocelyn_testing	1	2024-02-14_16h18.42.922	nback-master	2023.1.2	60.10418487
1	1	1	BP_003_BP16_BA.png	nonlure	nontarget	Body	2-Back	0	0	0	0	0	5	5	5															28.86866238	28.86866238	1	2	0.476623327	30.8664999								Jocelyn_testing	1	2024-02-14_16h18.42.922	nback-master	2023.1.2	60.10418487
1	1	1	BP_006_BP2_BA.png	lure	nontarget	Body	2-Back	0	0	0	0	0	6	6	6															31.38172763	31.38172763	1	2	0.819567458	33.36660938								Jocelyn_testing	1	2024-02-14_16h18.42.922	nback-master	2023.1.2	60.10418487
1	1	1	BP_004_BP18_BA.png	nonlure	nontarget	Body	2-Back	0	0	0	0	0	7	7	7															33.86669349	33.86669349	1	2	0.862881477	35.86680125								Jocelyn_testing	1	2024-02-14_16h18.42.922	nback-master	2023.1.2	60.10418487
1	1	1	BP_005_BP19_BA.png	lure	nontarget	Body	2-Back	0	0	0	0	0	8	8	8															36.36915019	36.36915019	1	2	1.11243387	38.36621138								Jocelyn_testing	1	2024-02-14_16h18.42.922	nback-master	2023.1.2	60.10418487
1	1	1	BP_004_BP18_BA.png	target	target	Body	2-Back	0	0	0	0	0	9	9	9															38.88206804	38.88206804	1	1	0.791626001	40.86663361								Jocelyn_testing	1	2024-02-14_16h18.42.922	nback-master	2023.1.2	60.10418487
1	2	1	FC_005_M3.png	nonlure	nontarget	Face	0-Back	0	0	0	0					0	0	0	0											44.0487292	44.0487292	1	2	1.089194559	45.8660121	41.76638181	41.76638181						Jocelyn_testing	1	2024-02-14_16h18.42.922	nback-master	2023.1.2	60.10418487
1	2	1	FC_001_M1.png	target	target	Face	0-Back	0	0	0	0					0	1	1	1											46.38223853	46.38223853	1	1	0.794912343	48.3662704								Jocelyn_testing	1	2024-02-14_16h18.42.922	nback-master	2023.1.2	60.10418487
1	2	1	FC_003_M2.png	nonlure	nontarget	Face	0-Back	0	0	0	0					0	2	2	2											48.87074247	48.87074247	1	2	0.946369999	50.86615892								Jocelyn_testing	1	2024-02-14_16h18.42.922	nback-master	2023.1.2	60.10418487
1	2	1	FC_004_F2.png	nonlure	nontarget	Face	0-Back	0	0	0	0					0	3	3	3											51.399442	51.399442	1	2	0.673743366	53.36648023								Jocelyn_testing	1	2024-02-14_16h18.42.922	nback-master	2023.1.2	60.10418487
1	2	1	FC_004_F2.png	lure	nontarget	Face	0-Back	0	0	0	0					0	4	4	4											53.8661421	53.8661421	1	2	0.383189966	55.86646997								Jocelyn_testing	1	2024-02-14_16h18.42.922	nback-master	2023.1.2	60.10418487
1	2	1	FC_001_M1.png	target	target	Face	0-Back	0	0	0	0					0	5	5	5											56.37030627	56.37030627	1	1	0.639123455	58.3661421								Jocelyn_testing	1	2024-02-14_16h18.42.922	nback-master	2023.1.2	60.10418487
1	2	1	FC_006_F3.png	nonlure	nontarget	Face	0-Back	0	0	0	0					0	6	6	6											59.01589173	59.01589173	1	2	0.785613539	60.86640839								Jocelyn_testing	1	2024-02-14_16h18.42.922	nback-master	2023.1.2	60.10418487
1	2	1	FC_006_F3.png	lure	nontarget	Face	0-Back	0	0	0	0					0	7	7	7											61.38253104	61.38253104	1	2	0.555143992	63.36642007								Jocelyn_testing	1	2024-02-14_16h18.42.922	nback-master	2023.1.2	60.10418487
1	2	1	FC_003_M2.png	lure	nontarget	Face	0-Back	0	0	0	0					0	8	8	8											63.87055231	63.87055231	1	2	0.674191828	65.86641466								Jocelyn_testing	1	2024-02-14_16h18.42.922	nback-master	2023.1.2	60.10418487
1	2	1	FC_002_F1.png	nonlure	nontarget	Face	0-Back	0	0	0	0					0	9	9	9											66.38667611	66.38667611	1	2	0.766143242	68.36653925								Jocelyn_testing	1	2024-02-14_16h18.42.922	nback-master	2023.1.2	60.10418487
								0	0	0	0																											68.86654922					Jocelyn_testing	1	2024-02-14_16h18.42.922	nback-master	2023.1.2	60.10418487
1	3	1	TO_001_TOOL1_BA.png	nonlure	nontarget	Tools	2-Back	1	0	1	0	0	0	0	0													84.25015937	84.25015937	86.60012636	86.60012636	1	2	1.376699962	88.36658629								Jocelyn_testing	1	2024-02-14_16h18.42.922	nback-master	2023.1.2	60.10418487
1	3	1	TO_002_TOOL2_BA.png	nonlure	nontarget	Tools	2-Back	1	0	1	0	0	1	1	1															88.86655635	88.86655635	1	2	0.574316644	90.86688564								Jocelyn_testing	1	2024-02-14_16h18.42.922	nback-master	2023.1.2	60.10418487
1	3	1	TO_004_TOOL4_BA.png	nonlure	nontarget	Tools	2-Back	1	0	1	0	0	2	2	2															91.48327379	91.48327379	1	2	0.957769701	93.36697573								Jocelyn_testing	1	2024-02-14_16h18.42.922	nback-master	2023.1.2	60.10418487
1	3	1	TO_002_TOOL2_BA.png	target	target	Tools	2-Back	1	0	1	0	0	3	3	3															93.86695464	93.86695464	1	1	0.878244916	95.86680353								Jocelyn_testing	1	2024-02-14_16h18.42.922	nback-master	2023.1.2	60.10418487
1	3	1	TO_001_TOOL1_BA.png	lure	nontarget	Tools	2-Back	1	0	1	0	0	4	4	4															96.37031083	96.37031083	1	2	0.694794254	98.36702078								Jocelyn_testing	1	2024-02-14_16h18.42.922	nback-master	2023.1.2	60.10418487
1	3	1	TO_004_TOOL4_BA.png	lure	nontarget	Tools	2-Back	1	0	1	0	0	5	5	5															98.87056514	98.87056514	1	2	0.9218332	100.8670336								Jocelyn_testing	1	2024-02-14_16h18.42.922	nback-master	2023.1.2	60.10418487
1	3	1	TO_006_TOOL6_BA.png	nonlure	nontarget	Tools	2-Back	1	0	1	0	0	6	6	6															101.7337907	101.7337907	1	2	0.906715517	103.3670846								Jocelyn_testing	1	2024-02-14_16h18.42.922	nback-master	2023.1.2	60.10418487
1	3	1	TO_005_TOOL5_BA.png	nonlure	nontarget	Tools	2-Back	1	0	1	0	0	7	7	7															103.9838032	103.9838032	1	2	0.792821993	105.8671163								Jocelyn_testing	1	2024-02-14_16h18.42.922	nback-master	2023.1.2	60.10418487
1	3	1	TO_006_TOOL6_BA.png	target	target	Tools	2-Back	1	0	1	0	0	8	8	8															106.369155	106.369155	1	1	0.407446797	108.3671545								Jocelyn_testing	1	2024-02-14_16h18.42.922	nback-master	2023.1.2	60.10418487
1	3	1	TO_003_TOOL3_BA.png	nonlure	nontarget	Tools	2-Back	1	0	1	0	0	9	9	9															108.9669165	108.9669165	1	2	0.713886794	110.8670978								Jocelyn_testing	1	2024-02-14_16h18.42.922	nback-master	2023.1.2	60.10418487
1	4	1	BP_007_BP20_BA.png	target	target	Body	0-Back	1	0	1	0					0	0	0	0											113.9170027	113.9170027	0	None		115.8672631	111.4687494	111.4687494						Jocelyn_testing	1	2024-02-14_16h18.42.922	nback-master	2023.1.2	60.10418487
1	4	1	BP_011_BP4_BA.png	nonlure	nontarget	Body	0-Back	1	0	1	0					0	1	1	1											116.4837145	116.4837145	1	2	0.749328077	118.3503744								Jocelyn_testing	1	2024-02-14_16h18.42.922	nback-master	2023.1.2	60.10418487
1	4	1	BP_010_BP3_BA.png	nonlure	nontarget	Body	0-Back	1	0	1	0					0	2	2	2											118.8550224	118.8550224	1	2	0.633265232	120.8508722								Jocelyn_testing	1	2024-02-14_16h18.42.922	nback-master	2023.1.2	60.10418487
1	4	1	BP_008_BP21_BA.png	nonlure	nontarget	Body	0-Back	1	0	1	0					0	3	3	3											121.3531473	121.3531473	1	2	0.735173174	123.3509435								Jocelyn_testing	1	2024-02-14_16h18.42.922	nback-master	2023.1.2	60.10418487
1	4	1	BP_011_BP4_BA.png	lure	nontarget	Body	0-Back	1	0	1	0					0	4	4	4											123.8672885	123.8672885	1	2	0.597263729	125.8508813								Jocelyn_testing	1	2024-02-14_16h18.42.922	nback-master	2023.1.2	60.10418487
1	4	1	BP_009_BP22_BA.png	nonlure	nontarget	Body	0-Back	1	0	1	0					0	5	5	5											126.3549596	126.3549596	1	2	0.541595781	128.3510441								Jocelyn_testing	1	2024-02-14_16h18.42.922	nback-master	2023.1.2	60.10418487
1	4	1	BP_009_BP22_BA.png	lure	nontarget	Body	0-Back	1	0	1	0					0	6	6	6											128.8507037	128.8507037	1	2	0.573924918	130.8509973								Jocelyn_testing	1	2024-02-14_16h18.42.922	nback-master	2023.1.2	60.10418487
1	4	1	BP_008_BP21_BA.png	lure	nontarget	Body	0-Back	1	0	1	0					0	7	7	7											131.3533611	131.3533611	1	2	0.663329824	133.3507898								Jocelyn_testing	1	2024-02-14_16h18.42.922	nback-master	2023.1.2	60.10418487
1	4	1	BP_007_BP20_BA.png	target	target	Body	0-Back	1	0	1	0					0	8	8	8											133.853758	133.853758	1	1	0.867170798	135.8508174								Jocelyn_testing	1	2024-02-14_16h18.42.922	nback-master	2023.1.2	60.10418487
1	4	1	BP_012_BP5_BA.png	nonlure	nontarget	Body	0-Back	1	0	1	0					0	9	9	9											136.7177687	136.7177687	1	2	1.202274694	138.35084								Jocelyn_testing	1	2024-02-14_16h18.42.922	nback-master	2023.1.2	60.10418487
								1	0	1	0																											138.8511846					Jocelyn_testing	1	2024-02-14_16h18.42.922	nback-master	2023.1.2	60.10418487
1	5	1	PL_003_92016.png	nonlure	nontarget	Place	0-Back	2	0	2	0	0	0	0	0													154.2347312	154.2347312	156.5345161	156.5345161	1	2	0.761520925	158.351488								Jocelyn_testing	1	2024-02-14_16h18.42.922	nback-master	2023.1.2	60.10418487
1	5	1	PL_003_92016.png	lure	nontarget	Place	0-Back	2	0	2	0	0	1	1	1															158.8679616	158.8679616	1	2	0.628080983	160.8512987								Jocelyn_testing	1	2024-02-14_16h18.42.922	nback-master	2023.1.2	60.10418487
1	5	1	PL_006_92025.png	nonlure	nontarget	Place	0-Back	2	0	2	0	0	2	2	2															161.4846274	161.4846274	1	2	1.027479937	163.3513075								Jocelyn_testing	1	2024-02-14_16h18.42.922	nback-master	2023.1.2	60.10418487
1	5	1	PL_001_92012.png	target	target	Place	0-Back	2	0	2	0	0	3	3	3															163.8540194	163.8540194	1	1	0.826098231	165.8516935								Jocelyn_testing	1	2024-02-14_16h18.42.922	nback-master	2023.1.2	60.10418487
1	5	1	PL_004_92023.png	nonlure	nontarget	Place	0-Back	2	0	2	0	0	4	4	4															166.4683331	166.4683331	1	2	0.763953108	168.3517648								Jocelyn_testing	1	2024-02-14_16h18.42.922	nback-master	2023.1.2	60.10418487
1	5	1	PL_005_92024.png	nonlure	nontarget	Place	0-Back	2	0	2	0	0	5	5	5															168.9683004	168.9683004	1	2	0.816154247	170.8514489								Jocelyn_testing	1	2024-02-14_16h18.42.922	nback-master	2023.1.2	60.10418487
1	5	1	PL_001_92012.png	target	target	Place	0-Back	2	0	2	0	0	6	6	6															171.3543567	171.3543567	1	1	0.486133104	173.3516836								Jocelyn_testing	1	2024-02-14_16h18.42.922	nback-master	2023.1.2	60.10418487
1	5	1	PL_002_92014.png	nonlure	nontarget	Place	0-Back	2	0	2	0	0	7	7	7															173.9681547	173.9681547	1	2	0.663492901	175.8518541								Jocelyn_testing	1	2024-02-14_16h18.42.922	nback-master	2023.1.2	60.10418487
1	5	1	PL_004_92023.png	lure	nontarget	Place	0-Back	2	0	2	0	0	8	8	8															176.3682342	176.3682342	1	2	1.015594996	178.3518629								Jocelyn_testing	1	2024-02-14_16h18.42.922	nback-master	2023.1.2	60.10418487
1	5	1	PL_006_92025.png	lure	nontarget	Place	0-Back	2	0	2	0	0	9	9	9															178.8542287	178.8542287	1	2	0.54566586	180.8516551								Jocelyn_testing	1	2024-02-14_16h18.42.922	nback-master	2023.1.2	60.10418487
1	6	1	FC_010_F5.png	nonlure	nontarget	Face	2-Back	2	0	2	0					0	0	0	0											184.0182746	184.0182746	0	None		185.8520385	181.4847959	181.4847959						Jocelyn_testing	1	2024-02-14_16h18.42.922	nback-master	2023.1.2	60.10418487
1	6	1	FC_012_F6.png	nonlure	nontarget	Face	2-Back	2	0	2	0					0	1	1	1											186.5017146	186.5017146	1	2	0.562604759	188.3520744								Jocelyn_testing	1	2024-02-14_16h18.42.922	nback-master	2023.1.2	60.10418487
1	6	1	FC_010_F5.png	target	target	Face	2-Back	2	0	2	0					0	2	2	2											188.8684429	188.8684429	0	2	0.659001729	190.851748								Jocelyn_testing	1	2024-02-14_16h18.42.922	nback-master	2023.1.2	60.10418487
1	6	1	FC_008_F4.png	nonlure	nontarget	Face	2-Back	2	0	2	0					0	3	3	3											191.3684816	191.3684816	1	2	0.814826254	193.3520417								Jocelyn_testing	1	2024-02-14_16h18.42.922	nback-master	2023.1.2	60.10418487
1	6	1	FC_012_F6.png	lure	nontarget	Face	2-Back	2	0	2	0					0	4	4	4											193.8684671	193.8684671	1	2	0.563132193	195.8521169								Jocelyn_testing	1	2024-02-14_16h18.42.922	nback-master	2023.1.2	60.10418487
1	6	1	FC_008_F4.png	target	target	Face	2-Back	2	0	2	0					0	5	5	5											196.3722695	196.3722695	1	1	0.731659609	198.3520676								Jocelyn_testing	1	2024-02-14_16h18.42.922	nback-master	2023.1.2	60.10418487
1	6	1	FC_007_M4.png	nonlure	nontarget	Face	2-Back	2	0	2	0					0	6	6	6											198.8683824	198.8683824	1	2	0.771380234	200.8522754								Jocelyn_testing	1	2024-02-14_16h18.42.922	nback-master	2023.1.2	60.10418487
1	6	1	FC_007_M4.png	lure	nontarget	Face	2-Back	2	0	2	0					0	7	7	7											201.3570514	201.3570514	1	2	0.474764479	203.3523547								Jocelyn_testing	1	2024-02-14_16h18.42.922	nback-master	2023.1.2	60.10418487
1	6	1	FC_009_M5.png	nonlure	nontarget	Face	2-Back	2	0	2	0					0	8	8	8											203.8855477	203.8855477	1	2	0.729734332	205.8526951								Jocelyn_testing	1	2024-02-14_16h18.42.922	nback-master	2023.1.2	60.10418487
1	6	1	FC_011_M6.png	nonlure	nontarget	Face	2-Back	2	0	2	0					0	9	9	9											206.3690176	206.3690176	1	2	0.742299235	208.3527436								Jocelyn_testing	1	2024-02-14_16h18.42.922	nback-master	2023.1.2	60.10418487
								2	0	2	0																											208.852741					Jocelyn_testing	1	2024-02-14_16h18.42.922	nback-master	2023.1.2	60.10418487
1	7	1	TO_010_TOOL10_BA.png	nonlure	nontarget	Tools	0-Back	3	0	3	0	0	0	0	0													224.2195192	224.2195192	226.5237733	226.5237733	1	2	0.435273643	228.3531835								Jocelyn_testing	1	2024-02-14_16h18.42.922	nback-master	2023.1.2	60.10418487
1	7	1	TO_009_TOOL9_BA.png	nonlure	nontarget	Tools	0-Back	3	0	3	0	0	1	1	1															228.9698624	228.9698624	1	2	0.533199032	230.8532177								Jocelyn_testing	1	2024-02-14_16h18.42.922	nback-master	2023.1.2	60.10418487
1	7	1	TO_009_TOOL9_BA.png	lure	nontarget	Tools	0-Back	3	0	3	0	0	2	2	2															231.3532054	231.3532054	1	2	0.533954545	233.3532585								Jocelyn_testing	1	2024-02-14_16h18.42.922	nback-master	2023.1.2	60.10418487
1	7	1	TO_008_TOOL8_BA.png	nonlure	nontarget	Tools	0-Back	3	0	3	0	0	3	3	3															233.9699346	233.9699346	1	2	0.725267394	235.8533349								Jocelyn_testing	1	2024-02-14_16h18.42.922	nback-master	2023.1.2	60.10418487
1	7	1	TO_011_TOOL11_BA.png	nonlure	nontarget	Tools	0-Back	3	0	3	0	0	4	4	4															236.4705712	236.4705712	1	2	0.848862281	238.3533976								Jocelyn_testing	1	2024-02-14_16h18.42.922	nback-master	2023.1.2	60.10418487
1	7	1	TO_012_TOOL12_BA.png	nonlure	nontarget	Tools	0-Back	3	0	3	0	0	5	5	5															238.9697102	238.9697102	1	2	1.237860522	240.8533292								Jocelyn_testing	1	2024-02-14_16h18.42.922	nback-master	2023.1.2	60.10418487
1	7	1	TO_010_TOOL10_BA.png	lure	nontarget	Tools	0-Back	3	0	3	0	0	6	6	6															241.3531595	241.3531595	1	2	0.677534334	243.3534446								Jocelyn_testing	1	2024-02-14_16h18.42.922	nback-master	2023.1.2	60.10418487
1	7	1	TO_007_TOOL7_BA.png	target	target	Tools	0-Back	3	0	3	0	0	7	7	7															243.8533269	243.8533269	1	1	0.401400408	245.8532211								Jocelyn_testing	1	2024-02-14_16h18.42.922	nback-master	2023.1.2	60.10418487
1	7	1	TO_008_TOOL8_BA.png	lure	nontarget	Tools	0-Back	3	0	3	0	0	8	8	8															246.3531592	246.3531592	1	2	0.597703922	248.3534324								Jocelyn_testing	1	2024-02-14_16h18.42.922	nback-master	2023.1.2	60.10418487
1	7	1	TO_007_TOOL7_BA.png	target	target	Tools	0-Back	3	0	3	0	0	9	9	9															248.8533582	248.8533582	1	1	0.609642747	250.8533907								Jocelyn_testing	1	2024-02-14_16h18.42.922	nback-master	2023.1.2	60.10418487
1	8	1	PL_007_92026.png	nonlure	nontarget	Place	2-Back	3	0	3	0					0	0	0	0											254.0033302	254.0033302	1	2	1.771865759	255.8534278	251.7216554	251.7216554						Jocelyn_testing	1	2024-02-14_16h18.42.922	nback-master	2023.1.2	60.10418487
1	8	1	PL_007_92026.png	lure	nontarget	Place	2-Back	3	0	3	0					0	1	1	1											256.3533993	256.3533993	1	2	0.765931128	258.3538144								Jocelyn_testing	1	2024-02-14_16h18.42.922	nback-master	2023.1.2	60.10418487
1	8	1	PL_010_92038.png	nonlure	nontarget	Place	2-Back	3	0	3	0					0	2	2	2											258.8534957	258.8534957	1	2	0.664930657	260.8537808								Jocelyn_testing	1	2024-02-14_16h18.42.922	nback-master	2023.1.2	60.10418487
1	8	1	PL_009_92037.png	nonlure	nontarget	Place	2-Back	3	0	3	0					0	3	3	3											261.4701849	261.4701849	1	2	0.736351776	263.3539555								Jocelyn_testing	1	2024-02-14_16h18.42.922	nback-master	2023.1.2	60.10418487
1	8	1	PL_010_92038.png	target	target	Place	2-Back	3	0	3	0					0	4	4	4											263.8703011	263.8703011	0	2	1.040394942	265.853988								Jocelyn_testing	1	2024-02-14_16h18.42.922	nback-master	2023.1.2	60.10418487
1	8	1	PL_009_92037.png	target	target	Place	2-Back	3	0	3	0					0	5	5	5											266.3703613	266.3703613	0	2	0.748558593	268.3540006								Jocelyn_testing	1	2024-02-14_16h18.42.922	nback-master	2023.1.2	60.10418487
1	8	1	PL_008_92033.png	nonlure	nontarget	Place	2-Back	3	0	3	0					0	6	6	6											268.9564351	268.9564351	1	2	0.722558949	270.8539242								Jocelyn_testing	1	2024-02-14_16h18.42.922	nback-master	2023.1.2	60.10418487
1	8	1	PL_012_92047.png	nonlure	nontarget	Place	2-Back	3	0	3	0					0	7	7	7											271.487089	271.487089	1	2	0.751853773	273.354079								Jocelyn_testing	1	2024-02-14_16h18.42.922	nback-master	2023.1.2	60.10418487
1	8	1	PL_012_92047.png	lure	nontarget	Place	2-Back	3	0	3	0					0	8	8	8											273.8705104	273.8705104	1	2	0.704462547	275.8540952								Jocelyn_testing	1	2024-02-14_16h18.42.922	nback-master	2023.1.2	60.10418487
1	8	1	PL_011_92044.png	nonlure	nontarget	Place	2-Back	3	0	3	0					0	9	9	9											276.4874474	276.4874474	1	2	0.671752802	278.3540011								Jocelyn_testing	1	2024-02-14_16h18.42.922	nback-master	2023.1.2	60.10418487
								3	0	3	0																											278.8539179					Jocelyn_testing	1	2024-02-14_16h18.42.922	nback-master	2023.1.2	60.10418487
2	1	None	TO_014_TOOL14_BA.png	nonlure	nontarget	Tools	2-Back	4	0	4	0	0	0	0	0													294.2375238	294.2375238	296.5042505	296.5042505	1	2	0.709737172	298.3542911								Jocelyn_testing	1	2024-02-14_16h18.42.922	nback-master	2023.1.2	60.10418487
2	1	None	TO_013_TOOL13_BA.png	nonlure	nontarget	Tools	2-Back	4	0	4	0	0	1	1	1															298.9711439	298.9711439	1	2	0.714886638	300.8542726								Jocelyn_testing	1	2024-02-14_16h18.42.922	nback-master	2023.1.2	60.10418487
2	1	None	TO_016_TOOL16_BA.png	nonlure	nontarget	Tools	2-Back	4	0	4	0	0	2	2	2															301.3542891	301.3542891	0	None		303.3546577								Jocelyn_testing	1	2024-02-14_16h18.42.922	nback-master	2023.1.2	60.10418487
2	1	None	TO_014_TOOL14_BA.png	lure	nontarget	Tools	2-Back	4	0	4	0	0	3	3	3															303.8543447	303.8543447	1	2	0.544163101	305.8546093								Jocelyn_testing	1	2024-02-14_16h18.42.922	nback-master	2023.1.2	60.10418487
2	1	None	TO_016_TOOL16_BA.png	target	target	Tools	2-Back	4	0	4	0	0	4	4	4															306.3546651	306.3546651	1	1	0.739906395	308.354676								Jocelyn_testing	1	2024-02-14_16h18.42.922	nback-master	2023.1.2	60.10418487
2	1	None	TO_018_TOOL18_BA.png	nonlure	nontarget	Tools	2-Back	4	0	4	0	0	5	5	5															309.2212911	309.2212911	1	2	0.657357276	310.8544205								Jocelyn_testing	1	2024-02-14_16h18.42.922	nback-master	2023.1.2	60.10418487
2	1	None	TO_017_TOOL17_BA.png	nonlure	nontarget	Tools	2-Back	4	0	4	0	0	6	6	6															311.471705	311.471705	1	2	0.543131326	313.3547472								Jocelyn_testing	1	2024-02-14_16h18.42.922	nback-master	2023.1.2	60.10418487
2	1	None	TO_018_TOOL18_BA.png	target	target	Tools	2-Back	4	0	4	0	0	7	7	7															313.8544861	313.8544861	1	1	0.831561307	315.8546931								Jocelyn_testing	1	2024-02-14_16h18.42.922	nback-master	2023.1.2	60.10418487
2	1	None	TO_015_TOOL15_BA.png	nonlure	nontarget	Tools	2-Back	4	0	4	0	0	8	8	8															316.456788	316.456788	1	2	0.661216667	318.3548205								Jocelyn_testing	1	2024-02-14_16h18.42.922	nback-master	2023.1.2	60.10418487
2	1	None	TO_017_TOOL17_BA.png	lure	nontarget	Tools	2-Back	4	0	4	0	0	9	9	9															318.8569519	318.8569519	1	2	0.669131598	320.8545283								Jocelyn_testing	1	2024-02-14_16h18.42.922	nback-master	2023.1.2	60.10418487
2	2	None	BP_015_H10-T_BA.png	nonlure	nontarget	Body	0-Back	4	0	4	0					0	0	0	0											323.9922501	323.9922501	1	2	0.878165658	325.8547159	321.3712719	321.3712719						Jocelyn_testing	1	2024-02-14_16h18.42.922	nback-master	2023.1.2	60.10418487
2	2	None	BP_018_H13-T_BA.png	nonlure	nontarget	Body	0-Back	4	0	4	0					0	1	1	1											326.4715189	326.4715189	1	2	0.535249182	328.3548371								Jocelyn_testing	1	2024-02-14_16h18.42.922	nback-master	2023.1.2	60.10418487
2	2	None	BP_014_BP9_BA.png	nonlure	nontarget	Body	0-Back	4	0	4	0					0	2	2	2											328.8716477	328.8716477	1	2	0.951137717	330.8552271								Jocelyn_testing	1	2024-02-14_16h18.42.922	nback-master	2023.1.2	60.10418487
2	2	None	BP_018_H13-T_BA.png	lure	nontarget	Body	0-Back	4	0	4	0					0	3	3	3											331.3550526	331.3550526	1	2	0.747559035	333.3553656								Jocelyn_testing	1	2024-02-14_16h18.42.922	nback-master	2023.1.2	60.10418487
2	2	None	BP_013_BP7_BA.png	target	target	Body	0-Back	4	0	4	0					0	4	4	4											333.8553956	333.8553956	1	1	0.806268994	335.8554945								Jocelyn_testing	1	2024-02-14_16h18.42.922	nback-master	2023.1.2	60.10418487
2	2	None	BP_015_H10-T_BA.png	lure	nontarget	Body	0-Back	4	0	4	0					0	5	5	5											336.3554973	336.3554973	1	2	0.442439618	338.3555273								Jocelyn_testing	1	2024-02-14_16h18.42.922	nback-master	2023.1.2	60.10418487
2	2	None	BP_016_H11-T_BA.png	nonlure	nontarget	Body	0-Back	4	0	4	0					0	6	6	6											338.8552085	338.8552085	1	2	0.646807456	340.8556148								Jocelyn_testing	1	2024-02-14_16h18.42.922	nback-master	2023.1.2	60.10418487
2	2	None	BP_013_BP7_BA.png	target	target	Body	0-Back	4	0	4	0					0	7	7	7											341.3718749	341.3718749	1	1	0.610194414	343.3555544								Jocelyn_testing	1	2024-02-14_16h18.42.922	nback-master	2023.1.2	60.10418487
2	2	None	BP_017_H12-T_BA.png	nonlure	nontarget	Body	0-Back	4	0	4	0					0	8	8	8											343.8722663	343.8722663	1	2	1.485914718	345.8552895								Jocelyn_testing	1	2024-02-14_16h18.42.922	nback-master	2023.1.2	60.10418487
2	2	None	BP_014_BP9_BA.png	lure	nontarget	Body	0-Back	4	0	4	0					0	9	9	9											346.3720177	346.3720177	1	2	0.826270146	348.3555581								Jocelyn_testing	1	2024-02-14_16h18.42.922	nback-master	2023.1.2	60.10418487
								4	0	4	0																											348.8556667					Jocelyn_testing	1	2024-02-14_16h18.42.922	nback-master	2023.1.2	60.10418487
2	3	None	FC_015_M8.png	nonlure	nontarget	Face	2-Back	5	0	5	0	0	0	0	0													363.8887579	363.8887579	366.7889087	366.7889087	1	2	0.760392501	368.3560273								Jocelyn_testing	1	2024-02-14_16h18.42.922	nback-master	2023.1.2	60.10418487
2	3	None	FC_018_F9.png	nonlure	nontarget	Face	2-Back	5	0	5	0	0	1	1	1															369.0260356	369.0260356	1	2	0.547578022	370.8560675								Jocelyn_testing	1	2024-02-14_16h18.42.922	nback-master	2023.1.2	60.10418487
2	3	None	FC_018_F9.png	lure	nontarget	Face	2-Back	5	0	5	0	0	2	2	2															371.3725155	371.3725155	1	2	0.488909973	373.3558127								Jocelyn_testing	1	2024-02-14_16h18.42.922	nback-master	2023.1.2	60.10418487
2	3	None	FC_017_M9.png	nonlure	nontarget	Face	2-Back	5	0	5	0	0	3	3	3															373.8890995	373.8890995	1	2	0.668405164	375.8561482								Jocelyn_testing	1	2024-02-14_16h18.42.922	nback-master	2023.1.2	60.10418487
2	3	None	FC_017_M9.png	lure	nontarget	Face	2-Back	5	0	5	0	0	4	4	4															376.3724334	376.3724334	1	2	0.625164701	378.3559723								Jocelyn_testing	1	2024-02-14_16h18.42.922	nback-master	2023.1.2	60.10418487
2	3	None	FC_016_F8.png	nonlure	nontarget	Face	2-Back	5	0	5	0	0	5	5	5															378.8726127	378.8726127	1	2	0.661063568	380.8562115								Jocelyn_testing	1	2024-02-14_16h18.42.922	nback-master	2023.1.2	60.10418487
2	3	None	FC_013_M7.png	nonlure	nontarget	Face	2-Back	5	0	5	0	0	6	6	6															381.3727325	381.3727325	1	2	0.553049366	383.3557556								Jocelyn_testing	1	2024-02-14_16h18.42.922	nback-master	2023.1.2	60.10418487
2	3	None	FC_014_F7.png	nonlure	nontarget	Face	2-Back	5	0	5	0	0	7	7	7															383.8733477	383.8733477	1	2	0.492636793	385.8562591								Jocelyn_testing	1	2024-02-14_16h18.42.922	nback-master	2023.1.2	60.10418487
2	3	None	FC_013_M7.png	target	target	Face	2-Back	5	0	5	0	0	8	8	8															386.372503	386.372503	1	1	0.680503074	388.3562668								Jocelyn_testing	1	2024-02-14_16h18.42.922	nback-master	2023.1.2	60.10418487
2	3	None	FC_014_F7.png	target	target	Face	2-Back	5	0	5	0	0	9	9	9															388.8727898	388.8727898	1	1	0.868707199	390.8561382								Jocelyn_testing	1	2024-02-14_16h18.42.922	nback-master	2023.1.2	60.10418487
2	4	None	TO_019_TOOL19_BA.png	target	target	Tools	0-Back	5	0	5	0					0	0	0	0											393.9059046	393.9059046	0	None		395.8564747	391.4893706	391.4893706						Jocelyn_testing	1	2024-02-14_16h18.42.922	nback-master	2023.1.2	60.10418487
2	4	None	TO_024_TOOL24_BA.png	nonlure	nontarget	Tools	0-Back	5	0	5	0					0	1	1	1											396.4897932	396.4897932	0	None		398.3562631								Jocelyn_testing	1	2024-02-14_16h18.42.922	nback-master	2023.1.2	60.10418487
2	4	None	TO_019_TOOL19_BA.png	target	target	Tools	0-Back	5	0	5	0					0	2	2	2											398.8562523	398.8562523	1	1	0.71739979	400.856583								Jocelyn_testing	1	2024-02-14_16h18.42.922	nback-master	2023.1.2	60.10418487
2	4	None	TO_023_TOOL23_BA.png	nonlure	nontarget	Tools	0-Back	5	0	5	0					0	3	3	3											401.4730704	401.4730704	1	2	0.724728556	403.3565462								Jocelyn_testing	1	2024-02-14_16h18.42.922	nback-master	2023.1.2	60.10418487
2	4	None	TO_020_TOOL20_BA.png	nonlure	nontarget	Tools	0-Back	5	0	5	0					0	4	4	4											403.9742567	403.9742567	1	2	0.734656574	405.8565876								Jocelyn_testing	1	2024-02-14_16h18.42.922	nback-master	2023.1.2	60.10418487
2	4	None	TO_020_TOOL20_BA.png	lure	nontarget	Tools	0-Back	5	0	5	0					0	5	5	5											406.3563812	406.3563812	1	2	0.736526827	408.3564966								Jocelyn_testing	1	2024-02-14_16h18.42.922	nback-master	2023.1.2	60.10418487
2	4	None	TO_022_TOOL22_BA.png	nonlure	nontarget	Tools	0-Back	5	0	5	0					0	6	6	6											408.9560901	408.9560901	1	2	0.657017152	410.8568336								Jocelyn_testing	1	2024-02-14_16h18.42.922	nback-master	2023.1.2	60.10418487
2	4	None	TO_022_TOOL22_BA.png	lure	nontarget	Tools	0-Back	5	0	5	0					0	7	7	7											411.3735017	411.3735017	1	2	0.807689359	413.3568881								Jocelyn_testing	1	2024-02-14_16h18.42.922	nback-master	2023.1.2	60.10418487
2	4	None	TO_021_TOOL21_BA.png	nonlure	nontarget	Tools	0-Back	5	0	5	0					0	8	8	8											413.973427	413.973427	1	2	0.7038416	415.8570343								Jocelyn_testing	1	2024-02-14_16h18.42.922	nback-master	2023.1.2	60.10418487
2	4	None	TO_021_TOOL21_BA.png	lure	nontarget	Tools	0-Back	5	0	5	0					0	9	9	9											416.3570109	416.3570109	1	2	0.784300941	418.3570853								Jocelyn_testing	1	2024-02-14_16h18.42.922	nback-master	2023.1.2	60.10418487
								5	0	5	0																											418.8570842					Jocelyn_testing	1	2024-02-14_16h18.42.922	nback-master	2023.1.2	60.10418487
2	5	None	BP_020_H17-T_BA.png	nonlure	nontarget	Body	2-Back	6	0	6	0	0	0	0	0													434.2240688	434.2240688	436.4081193	436.4081193	1	2	1.357166943	438.3570152								Jocelyn_testing	1	2024-02-14_16h18.42.922	nback-master	2023.1.2	60.10418487
2	5	None	BP_019_H14-T_BA.png	nonlure	nontarget	Body	2-Back	6	0	6	0	0	1	1	1															438.8607149	438.8607149	1	2	0.663697317	440.857298								Jocelyn_testing	1	2024-02-14_16h18.42.922	nback-master	2023.1.2	60.10418487
2	5	None	BP_020_H17-T_BA.png	target	target	Body	2-Back	6	0	6	0	0	2	2	2															441.3570942	441.3570942	1	1	0.79934792	443.3576211								Jocelyn_testing	1	2024-02-14_16h18.42.922	nback-master	2023.1.2	60.10418487
2	5	None	BP_019_H14-T_BA.png	target	target	Body	2-Back	6	0	6	0	0	3	3	3															443.8573391	443.8573391	1	1	0.851158757	445.8577374								Jocelyn_testing	1	2024-02-14_16h18.42.922	nback-master	2023.1.2	60.10418487
2	5	None	BP_024_H3-T_BA.png	nonlure	nontarget	Body	2-Back	6	0	6	0	0	4	4	4															446.7240397	446.7240397	1	2	0.77671473	448.3576915								Jocelyn_testing	1	2024-02-14_16h18.42.922	nback-master	2023.1.2	60.10418487
2	5	None	BP_024_H3-T_BA.png	lure	nontarget	Body	2-Back	6	0	6	0	0	5	5	5															448.8620666	448.8620666	1	2	0.998717964	450.8580379								Jocelyn_testing	1	2024-02-14_16h18.42.922	nback-master	2023.1.2	60.10418487
2	5	None	BP_025_H5-T_BA.png	nonlure	nontarget	Body	2-Back	6	0	6	0	0	6	6	6															451.3577183	451.3577183	1	2	0.951176206	453.3580575								Jocelyn_testing	1	2024-02-14_16h18.42.922	nback-master	2023.1.2	60.10418487
2	5	None	BP_023_H25-T_BA.png	nonlure	nontarget	Body	2-Back	6	0	6	0	0	7	7	7															453.8577779	453.8577779	1	2	0.714332405	455.8580935								Jocelyn_testing	1	2024-02-14_16h18.42.922	nback-master	2023.1.2	60.10418487
2	5	None	BP_022_H24-T_BA.png	nonlure	nontarget	Body	2-Back	6	0	6	0	0	8	8	8															456.3744579	456.3744579	1	2	0.789649692	458.3581696								Jocelyn_testing	1	2024-02-14_16h18.42.922	nback-master	2023.1.2	60.10418487
2	5	None	BP_022_H24-T_BA.png	lure	nontarget	Body	2-Back	6	0	6	0	0	9	9	9															458.8745434	458.8745434	1	2	0.793719772	460.8581431								Jocelyn_testing	1	2024-02-14_16h18.42.922	nback-master	2023.1.2	60.10418487
2	6	None	PL_019_SCENE_05.png	nonlure	nontarget	Place	2-Back	6	0	6	0					0	0	0	0											463.9244241	463.9244241	1	2	1.584141742	465.8577251	461.524356	461.524356						Jocelyn_testing	1	2024-02-14_16h18.42.922	nback-master	2023.1.2	60.10418487
2	6	None	PL_017_SCENE_03.png	nonlure	nontarget	Place	2-Back	6	0	6	0					0	1	1	1											466.3746395	466.3746395	1	2	0.654023038	468.358392								Jocelyn_testing	1	2024-02-14_16h18.42.922	nback-master	2023.1.2	60.10418487
2	6	None	PL_017_SCENE_03.png	lure	nontarget	Place	2-Back	6	0	6	0					0	2	2	2											468.8630878	468.8630878	1	2	0.509639839	470.8587669								Jocelyn_testing	1	2024-02-14_16h18.42.922	nback-master	2023.1.2	60.10418487
2	6	None	PL_016_SCENE_02.png	nonlure	nontarget	Place	2-Back	6	0	6	0					0	3	3	3											471.3748975	471.3748975	1	2	0.949914641	473.3585128								Jocelyn_testing	1	2024-02-14_16h18.42.922	nback-master	2023.1.2	60.10418487
2	6	None	PL_015_SCENE_01.png	nonlure	nontarget	Place	2-Back	6	0	6	0					0	4	4	4											473.9749304	473.9749304	1	2	1.613068787	475.8586329								Jocelyn_testing	1	2024-02-14_16h18.42.922	nback-master	2023.1.2	60.10418487
2	6	None	PL_016_SCENE_02.png	target	target	Place	2-Back	6	0	6	0					0	5	5	5											476.3635303	476.3635303	1	1	0.784559526	478.3588045								Jocelyn_testing	1	2024-02-14_16h18.42.922	nback-master	2023.1.2	60.10418487
2	6	None	PL_015_SCENE_01.png	target	target	Place	2-Back	6	0	6	0					0	6	6	6											478.8585545	478.8585545	1	1	0.841640997	480.8591868								Jocelyn_testing	1	2024-02-14_16h18.42.922	nback-master	2023.1.2	60.10418487
2	6	None	PL_020_SCENE_06.png	nonlure	nontarget	Place	2-Back	6	0	6	0					0	7	7	7											481.4925056	481.4925056	1	2	0.695833157	483.3591937								Jocelyn_testing	1	2024-02-14_16h18.42.922	nback-master	2023.1.2	60.10418487
2	6	None	PL_020_SCENE_06.png	lure	nontarget	Place	2-Back	6	0	6	0					0	8	8	8											483.8632549	483.8632549	1	2	0.461144138	485.8589562								Jocelyn_testing	1	2024-02-14_16h18.42.922	nback-master	2023.1.2	60.10418487
2	6	None	PL_018_SCENE_04.png	nonlure	nontarget	Place	2-Back	6	0	6	0					0	9	9	9											486.3921015	486.3921015	1	2	0.612283338	488.3592735								Jocelyn_testing	1	2024-02-14_16h18.42.922	nback-master	2023.1.2	60.10418487
								6	0	6	0																											488.8590006					Jocelyn_testing	1	2024-02-14_16h18.42.922	nback-master	2023.1.2	60.10418487
2	7	None	FC_024_F12.png	nonlure	nontarget	Face	0-Back	7	0	7	0	0	0	0	0													504.2426128	504.2426128	506.5469473	506.5469473	1	2	0.673456271	508.3610454								Jocelyn_testing	1	2024-02-14_16h18.42.922	nback-master	2023.1.2	60.10418487
2	7	None	FC_023_M12.png	nonlure	nontarget	Face	0-Back	7	0	7	0	0	1	1	1															508.8633544	508.8633544	1	2	0.548293337	510.8610152								Jocelyn_testing	1	2024-02-14_16h18.42.922	nback-master	2023.1.2	60.10418487
2	7	None	FC_020_F10.png	target	target	Face	0-Back	7	0	7	0	0	2	2	2															511.3606867	511.3606867	1	1	0.610954204	513.3608481								Jocelyn_testing	1	2024-02-14_16h18.42.922	nback-master	2023.1.2	60.10418487
2	7	None	FC_024_F12.png	lure	nontarget	Face	0-Back	7	0	7	0	0	3	3	3															513.8642627	513.8642627	1	2	0.651377885	515.8609835								Jocelyn_testing	1	2024-02-14_16h18.42.922	nback-master	2023.1.2	60.10418487
2	7	None	FC_020_F10.png	target	target	Face	0-Back	7	0	7	0	0	4	4	4															516.3789753	516.3789753	1	1	0.448889993	518.361219								Jocelyn_testing	1	2024-02-14_16h18.42.922	nback-master	2023.1.2	60.10418487
2	7	None	FC_022_F11.png	nonlure	nontarget	Face	0-Back	7	0	7	0	0	5	5	5															518.8931573	518.8931573	1	2	0.430782757	520.8608926								Jocelyn_testing	1	2024-02-14_16h18.42.922	nback-master	2023.1.2	60.10418487
2	7	None	FC_023_M12.png	lure	nontarget	Face	0-Back	7	0	7	0	0	6	6	6															521.3765334	521.3765334	1	2	0.67550186	523.3611443								Jocelyn_testing	1	2024-02-14_16h18.42.922	nback-master	2023.1.2	60.10418487
2	7	None	FC_021_M11.png	nonlure	nontarget	Face	0-Back	7	0	7	0	0	7	7	7															523.8764752	523.8764752	1	2	0.790700283	525.861402								Jocelyn_testing	1	2024-02-14_16h18.42.922	nback-master	2023.1.2	60.10418487
2	7	None	FC_021_M11.png	lure	nontarget	Face	0-Back	7	0	7	0	0	8	8	8															526.376378	526.376378	1	2	0.69079545	528.3615229								Jocelyn_testing	1	2024-02-14_16h18.42.922	nback-master	2023.1.2	60.10418487
2	7	None	FC_019_M10.png	nonlure	nontarget	Face	0-Back	7	0	7	0	0	9	9	9															528.8935789	528.8935789	1	2	0.749841826	530.861227								Jocelyn_testing	1	2024-02-14_16h18.42.922	nback-master	2023.1.2	60.10418487
2	8	None	PL_025_SCENE_18.png	nonlure	nontarget	Place	0-Back	7	0	7	0					0	0	0	0											534.0602982	534.0602982	1	2	1.487453685	535.8613564	531.7268913	531.7268913						Jocelyn_testing	1	2024-02-14_16h18.42.922	nback-master	2023.1.2	60.10418487
2	8	None	PL_026_SCENE_24.png	nonlure	nontarget	Place	0-Back	7	0	7	0					0	1	1	1											536.3934655	536.3934655	1	2	0.75438289	538.3614112								Jocelyn_testing	1	2024-02-14_16h18.42.922	nback-master	2023.1.2	60.10418487
2	8	None	PL_025_SCENE_18.png	lure	nontarget	Place	0-Back	7	0	7	0					0	2	2	2											538.8792176	538.8792176	0	1	0.916627854	540.8611497								Jocelyn_testing	1	2024-02-14_16h18.42.922	nback-master	2023.1.2	60.10418487
2	8	None	PL_022_SCENE_08.png	nonlure	nontarget	Place	0-Back	7	0	7	0					0	3	3	3											541.364088	541.364088	1	2	0.72789259	543.3612387								Jocelyn_testing	1	2024-02-14_16h18.42.922	nback-master	2023.1.2	60.10418487
2	8	None	PL_026_SCENE_24.png	lure	nontarget	Place	0-Back	7	0	7	0					0	4	4	4											543.8648318	543.8648318	1	2	0.834398046	545.8609567								Jocelyn_testing	1	2024-02-14_16h18.42.922	nback-master	2023.1.2	60.10418487
2	8	None	PL_021_SCENE_07.png	target	target	Place	0-Back	7	0	7	0					0	5	5	5											546.3773505	546.3773505	1	1	0.745920853	548.3608666								Jocelyn_testing	1	2024-02-14_16h18.42.922	nback-master	2023.1.2	60.10418487
2	8	None	PL_021_SCENE_07.png	target	target	Place	0-Back	7	0	7	0					0	6	6	6											548.8609504	548.8609504	1	1	0.782353142	550.8608786								Jocelyn_testing	1	2024-02-14_16h18.42.922	nback-master	2023.1.2	60.10418487
2	8	None	PL_023_SCENE_09.png	nonlure	nontarget	Place	0-Back	7	0	7	0					0	7	7	7											551.3943504	551.3943504	1	2	0.857076852	553.3608883								Jocelyn_testing	1	2024-02-14_16h18.42.922	nback-master	2023.1.2	60.10418487
2	8	None	PL_024_SCENE_10.png	nonlure	nontarget	Place	0-Back	7	0	7	0					0	8	8	8											554.2295447	554.2295447	1	2	0.837988874	555.8609023								Jocelyn_testing	1	2024-02-14_16h18.42.922	nback-master	2023.1.2	60.10418487
2	8	None	PL_022_SCENE_08.png	lure	nontarget	Place	0-Back	7	0	7	0					0	9	9	9											556.3609197	556.3609197	1	2	0.730750427	558.3609815								Jocelyn_testing	1	2024-02-14_16h18.42.922	nback-master	2023.1.2	60.10418487
								7	0	7	0																											558.8612082					Jocelyn_testing	1	2024-02-14_16h18.42.922	nback-master	2023.1.2	60.10418487
																																							573.8615714	573.8615714	q	2.253859162	Jocelyn_testing	1	2024-02-14_16h18.42.922	nback-master	2023.1.2	60.10418487
