Run,Block,Weight,Stimulus,TargetType,CorrectResponse,StimType,BlockType,block.thisRepN,block.thisTrialN,block.thisN,block.thisIndex,trials.thisRepN,trials.thisTrialN,trials.thisN,trials.thisIndex,trials_2.thisRepN,trials_2.thisTrialN,trials_2.thisN,trials_2.thisIndex,trigger_txt.started,trigger_txt.stopped,trigger_resp.keys,trigger_resp.rt,trigger_resp.started,trigger_resp.stopped,instr_txt.started,instr_txt.stopped,prepared_resp.keys,prepared_resp.rt,prepared_resp.started,prepared_resp.stopped,prep_instr.started,prep_instr.stopped,target.started,target.stopped,corr_var,stim_trial_fixation.started,stim_trial_fixation.stopped,image.started,image.stopped,key_resp.keys,key_resp.rt,key_resp.started,key_resp.stopped,(iti duration),(stim duration),(rest duration),prep_instr_2.started,prep_instr_2.stopped,target_2.started,target_2.stopped,rest_txt.started,rest_txt.stopped,end_txt.started,end_txt.stopped,end_key_resp.keys,end_key_resp.rt,end_key_resp.started,end_key_resp.stopped,participant,session,date,expName,psychopyVersion,frameRate
,,,,,,,,,,,,,,,,,,,,18.0959116,None,s,0.9307935,18.0959116,None,,,,,,,,,,,,,,,,,,,,,,,,,,,,,,,,,,,Jocelyn_personal,1,2024_Feb_19_2130,nback-master,2021.1.4,60.07665781
,,,,,,,,,,,,,,,,,,,,,,,,,,19.0516551,None,1,0.8992539,19.0516551,None,,,,,,,,,,,,,,,,,,,,,,,,,,,,,Jocelyn_personal,1,2024_Feb_19_2130,nback-master,2021.1.4,60.07665781
4,1,1,FC_040_F20.png,nonlure,nontarget,Face,0-Back,0,0,0,0,0,0,0,0,,,,,,,,,,,,,,,,,20.1970245,None,20.1970245,None,1,23.1859966,23.6813135,23.6813135,None,2,0.5430325,23.6813135,None,0.4953169,2.1327837,,,,,,,,,,,,,,Jocelyn_personal,1,2024_Feb_19_2130,nback-master,2021.1.4,60.07665781
4,1,1,FC_041_M21.png,nonlure,nontarget,Face,0-Back,0,0,0,0,0,1,1,1,,,,,,,,,,,,,,,,,,,,,1,25.8140972,26.3134324,26.3134324,25.8140972,2,0.6746602,26.3134324,25.8140972,0.4993352,2.0515785,,,,,,,,,,,,,,Jocelyn_personal,1,2024_Feb_19_2130,nback-master,2021.1.4,60.07665781
4,1,1,FC_038_F19.png,nonlure,nontarget,Face,0-Back,0,0,0,0,0,2,2,2,,,,,,,,,,,,,,,,,,,,,1,28.3650109,28.8619885,28.8619885,28.3650109,2,1.8531645,28.8619885,28.3650109,0.4969776,2.0258972,,,,,,,,,,,,,,Jocelyn_personal,1,2024_Feb_19_2130,nback-master,2021.1.4,60.07665781
4,1,1,FC_040_F20.png,lure,nontarget,Face,0-Back,0,0,0,0,0,3,3,3,,,,,,,,,,,,,,,,,,,,,1,30.8878857,31.3939181,31.3939181,30.8878857,2,1.9596793,31.3939181,30.8878857,0.5060324,2.0391601,,,,,,,,,,,,,,Jocelyn_personal,1,2024_Feb_19_2130,nback-master,2021.1.4,60.07665781
4,1,1,FC_039_M20.png,nonlure,nontarget,Face,0-Back,0,0,0,0,0,4,4,4,,,,,,,,,,,,,,,,,,,,,1,33.4330782,33.9257406,33.9257406,33.4330782,2,1.9115156,33.9257406,33.4330782,0.4926624,2.019111,,,,,,,,,,,,,,Jocelyn_personal,1,2024_Feb_19_2130,nback-master,2021.1.4,60.07665781
4,1,1,FC_037_M19.png,target,target,Face,0-Back,0,0,0,0,0,5,5,5,,,,,,,,,,,,,,,,,,,,,0,35.9448516,36.4409524,36.4409524,35.9448516,2,1.8621274,36.4409524,35.9448516,0.4961008,2.0305069,,,,,,,,,,,,,,Jocelyn_personal,1,2024_Feb_19_2130,nback-master,2021.1.4,60.07665781
4,1,1,FC_038_F19.png,lure,nontarget,Face,0-Back,0,0,0,0,0,6,6,6,,,,,,,,,,,,,,,,,,,,,1,38.4714593,38.9730186,38.9730186,38.4714593,2,1.9361069,38.9730186,38.4714593,0.5015593,2.0453902,,,,,,,,,,,,,,Jocelyn_personal,1,2024_Feb_19_2130,nback-master,2021.1.4,60.07665781
4,1,1,FC_042_F21.png,nonlure,nontarget,Face,0-Back,0,0,0,0,0,7,7,7,,,,,,,,,,,,,,,,,,,,,1,41.0184088,41.5213359,41.5213359,41.0184088,2,1.8915891,41.5213359,41.0184088,0.5029271,2.0248333,,,,,,,,,,,,,,Jocelyn_personal,1,2024_Feb_19_2130,nback-master,2021.1.4,60.07665781
4,1,1,FC_041_M21.png,lure,nontarget,Face,0-Back,0,0,0,0,0,8,8,8,,,,,,,,,,,,,,,,,,,,,1,43.5461692,44.0531364,44.0531364,43.5461692,2,1.8317863,44.0531364,43.5461692,0.5069672,2.0380882,,,,,,,,,,,,,,Jocelyn_personal,1,2024_Feb_19_2130,nback-master,2021.1.4,60.07665781
4,1,1,FC_037_M19.png,target,target,Face,0-Back,0,0,0,0,0,9,9,9,,,,,,,,,,,,,,,,,,,,,0,46.0912246,46.5854681,46.5854681,46.0912246,2,1.8644112,46.5854681,46.0912246,0.4942435,2.1035204,,,,,,,,,,,,,,Jocelyn_personal,1,2024_Feb_19_2130,nback-master,2021.1.4,60.07665781
4,2,1,BP_038_FRBHI_BA.png,nonlure,nontarget,Body,2-Back,0,0,0,0,,,,,0,0,0,0,,,,,,,,,,,,,,,,,1,51.5015821,51.9989146,51.9989146,None,2,1.4505493,51.9989146,None,0.4973325,2.0321403,,48.6889885,None,48.6889885,None,,,,,,,,,Jocelyn_personal,1,2024_Feb_19_2130,nback-master,2021.1.4,60.07665781
4,2,1,BP_040_FRCHS_BA.png,nonlure,nontarget,Body,2-Back,0,0,0,0,,,,,0,1,1,1,,,,,,,,,,,,,,,,,1,54.0310549,54.5295256,54.5295256,54.0310549,2,1.417475,54.5295256,54.0310549,0.4984707,1.9988599,,,,,,,,,,,,,,Jocelyn_personal,1,2024_Feb_19_2130,nback-master,2021.1.4,60.07665781
4,2,1,BP_038_FRBHI_BA.png,target,target,Body,2-Back,0,0,0,0,,,,,0,2,2,2,,,,,,,,,,,,,,,,,0,56.5283855,57.0281872,57.0281872,56.5283855,2,1.9311947,57.0281872,56.5283855,0.4998017,2.1420183,,,,,,,,,,,,,,Jocelyn_personal,1,2024_Feb_19_2130,nback-master,2021.1.4,60.07665781
4,2,1,BP_043_MLBAS_BA.png,nonlure,nontarget,Body,2-Back,0,0,0,0,,,,,0,3,3,3,,,,,,,,,,,,,,,,,1,59.1702055,59.6609181,59.6609181,59.1702055,2,1.9263477,59.6609181,59.1702055,0.4907126,2.114406,,,,,,,,,,,,,,Jocelyn_personal,1,2024_Feb_19_2130,nback-master,2021.1.4,60.07665781
4,2,1,BP_041_FRPUI_BA.png,nonlure,nontarget,Body,2-Back,0,0,0,0,,,,,0,4,4,4,,,,,,,,,,,,,,,,,1,61.7753241,62.2759358,62.2759358,61.7753241,2,1.8586314,62.2759358,61.7753241,0.5006117,2.0390369,,,,,,,,,,,,,,Jocelyn_personal,1,2024_Feb_19_2130,nback-master,2021.1.4,60.07665781
4,2,1,BP_042_MBBHS_BA.png,nonlure,nontarget,Body,2-Back,0,0,0,0,,,,,0,5,5,5,,,,,,,,,,,,,,,,,1,64.3149727,64.808131,64.808131,64.3149727,2,1.8163956,64.808131,64.3149727,0.4931583,2.0107903,,,,,,,,,,,,,,Jocelyn_personal,1,2024_Feb_19_2130,nback-master,2021.1.4,60.07665781
4,2,1,BP_043_MLBAS_BA.png,lure,nontarget,Body,2-Back,0,0,0,0,,,,,0,6,6,6,,,,,,,,,,,,,,,,,1,66.8189213,67.3237328,67.3237328,66.8189213,2,1.8951213,67.3237328,66.8189213,0.5048115,2.0112795,,,,,,,,,,,,,,Jocelyn_personal,1,2024_Feb_19_2130,nback-master,2021.1.4,60.07665781
4,2,1,BP_042_MBBHS_BA.png,target,target,Body,2-Back,0,0,0,0,,,,,0,7,7,7,,,,,,,,,,,,,,,,,0,69.3350123,69.8388594,69.8388594,69.3350123,2,1.8553468,69.8388594,69.3350123,0.5038471,2.0166615,,,,,,,,,,,,,,Jocelyn_personal,1,2024_Feb_19_2130,nback-master,2021.1.4,60.07665781
4,2,1,BP_041_FRPUI_BA.png,lure,nontarget,Body,2-Back,0,0,0,0,,,,,0,8,8,8,,,,,,,,,,,,,,,,,1,71.8555209,72.3540013,72.3540013,71.8555209,2,1.8814926,72.3540013,71.8555209,0.4984804,2.1782151,,,,,,,,,,,,,,Jocelyn_personal,1,2024_Feb_19_2130,nback-master,2021.1.4,60.07665781
4,2,1,BP_039_FRCHI_BA.png,nonlure,nontarget,Body,2-Back,0,0,0,0,,,,,0,9,9,9,,,,,,,,,,,,,,,,,1,74.5322164,75.0360203,75.0360203,74.5322164,2,0.8659375,75.0360203,74.5322164,0.5038039,-75.0360203,,,,,,,,,,,,,,Jocelyn_personal,1,2024_Feb_19_2130,nback-master,2021.1.4,60.07665781
,,,,,,,,0,0,0,0,,,,,,,,,,,,,,,,,,,,,,,,,,,,,,,,,,0,95.0436189,,,,,,77.0355773,None,,,,,,,Jocelyn_personal,1,2024_Feb_19_2130,nback-master,2021.1.4,60.07665781
4,3,1,TO_037_TOOL37_BA.png,target,target,Tools,0-Back,1,0,1,0,0,0,0,0,,,,,,,,,,,,,,,,,92.192661,None,92.192661,None,0,95.0436189,95.5410123,95.5410123,None,None,,95.5410123,None,0.4973934,2.0090005,,,,,,,,,,,,,,Jocelyn_personal,1,2024_Feb_19_2130,nback-master,2021.1.4,60.07665781
4,3,1,TO_037_TOOL37_BA.png,target,target,Tools,0-Back,1,0,1,0,0,1,1,1,,,,,,,,,,,,,,,,,,,,,0,97.5500128,98.0564616,98.0564616,97.5500128,None,,98.0564616,97.5500128,0.5064488,2.1171775,,,,,,,,,,,,,,Jocelyn_personal,1,2024_Feb_19_2130,nback-master,2021.1.4,60.07665781
4,3,1,TO_042_TOOL42_BA.png,nonlure,nontarget,Tools,0-Back,1,0,1,0,0,2,2,2,,,,,,,,,,,,,,,,,,,,,0,100.1736391,100.6716436,100.6716436,100.1736391,None,,100.6716436,100.1736391,0.4980045,2.0251593,,,,,,,,,,,,,,Jocelyn_personal,1,2024_Feb_19_2130,nback-master,2021.1.4,60.07665781
4,3,1,TO_038_TOOL38_BA.png,nonlure,nontarget,Tools,0-Back,1,0,1,0,0,3,3,3,,,,,,,,,,,,,,,,,,,,,0,102.6968029,103.2037367,103.2037367,102.6968029,None,,103.2037367,102.6968029,0.5069338,2.0269455,,,,,,,,,,,,,,Jocelyn_personal,1,2024_Feb_19_2130,nback-master,2021.1.4,60.07665781
4,3,1,TO_040_TOOL40_BA.png,nonlure,nontarget,Tools,0-Back,1,0,1,0,0,4,4,4,,,,,,,,,,,,,,,,,,,,,0,105.2306822,105.7354252,105.7354252,105.2306822,None,,105.7354252,105.2306822,0.504743,2.0247185,,,,,,,,,,,,,,Jocelyn_personal,1,2024_Feb_19_2130,nback-master,2021.1.4,60.07665781
4,3,1,TO_039_TOOL39_BA.png,nonlure,nontarget,Tools,0-Back,1,0,1,0,0,5,5,5,,,,,,,,,,,,,,,,,,,,,0,107.7601437,108.2675366,108.2675366,107.7601437,None,,108.2675366,107.7601437,0.5073929,2.0210138,,,,,,,,,,,,,,Jocelyn_personal,1,2024_Feb_19_2130,nback-master,2021.1.4,60.07665781
4,3,1,TO_041_TOOL41_BA.png,nonlure,nontarget,Tools,0-Back,1,0,1,0,0,6,6,6,,,,,,,,,,,,,,,,,,,,,0,110.2885504,110.782729,110.782729,110.2885504,None,,110.782729,110.2885504,0.4941786,2.0073603,,,,,,,,,,,,,,Jocelyn_personal,1,2024_Feb_19_2130,nback-master,2021.1.4,60.07665781
4,3,1,TO_040_TOOL40_BA.png,lure,nontarget,Tools,0-Back,1,0,1,0,0,7,7,7,,,,,,,,,,,,,,,,,,,,,0,112.7900893,113.2979672,113.2979672,112.7900893,None,,113.2979672,112.7900893,0.5078779,2.0034971,,,,,,,,,,,,,,Jocelyn_personal,1,2024_Feb_19_2130,nback-master,2021.1.4,60.07665781
4,3,1,TO_041_TOOL41_BA.png,lure,nontarget,Tools,0-Back,1,0,1,0,0,8,8,8,,,,,,,,,,,,,,,,,,,,,0,115.3014643,115.7966277,115.7966277,115.3014643,None,,115.7966277,115.3014643,0.4951634,2.005873,,,,,,,,,,,,,,Jocelyn_personal,1,2024_Feb_19_2130,nback-master,2021.1.4,60.07665781
4,3,1,TO_038_TOOL38_BA.png,lure,nontarget,Tools,0-Back,1,0,1,0,0,9,9,9,,,,,,,,,,,,,,,,,,,,,0,117.8025007,118.295189,118.295189,117.8025007,None,,118.295189,117.8025007,0.4926883,2.4441709,,,,,,,,,,,,,,Jocelyn_personal,1,2024_Feb_19_2130,nback-master,2021.1.4,60.07665781
4,4,1,PL_043_LEXINGTON19.png,nonlure,nontarget,Place,2-Back,1,0,1,0,,,,,0,0,0,0,,,,,,,,,,,,,,,,,0,123.6844569,124.1918954,124.1918954,None,None,,124.1918954,None,0.5074385,2.0086942,,120.7393599,None,120.7393599,None,,,,,,,,,Jocelyn_personal,1,2024_Feb_19_2130,nback-master,2021.1.4,60.07665781
4,4,1,PL_043_LEXINGTON19.png,lure,nontarget,Place,2-Back,1,0,1,0,,,,,0,1,1,1,,,,,,,,,,,,,,,,,0,126.2005896,126.7071566,126.7071566,126.2005896,None,,126.7071566,126.2005896,0.506567,2.0474815,,,,,,,,,,,,,,Jocelyn_personal,1,2024_Feb_19_2130,nback-master,2021.1.4,60.07665781
4,4,1,PL_044_SCENE01.png,nonlure,nontarget,Place,2-Back,1,0,1,0,,,,,0,2,2,2,,,,,,,,,,,,,,,,,0,128.7546381,129.255658,129.255658,128.7546381,None,,129.255658,128.7546381,0.5010199,2.0116862,,,,,,,,,,,,,,Jocelyn_personal,1,2024_Feb_19_2130,nback-master,2021.1.4,60.07665781
4,4,1,PL_044_SCENE01.png,lure,nontarget,Place,2-Back,1,0,1,0,,,,,0,3,3,3,,,,,,,,,,,,,,,,,0,131.2673442,131.770888,131.770888,131.2673442,None,,131.770888,131.2673442,0.5035438,2.0275929,,,,,,,,,,,,,,Jocelyn_personal,1,2024_Feb_19_2130,nback-master,2021.1.4,60.07665781
4,4,1,PL_042_LEXINGTON18.png,nonlure,nontarget,Place,2-Back,1,0,1,0,,,,,0,4,4,4,,,,,,,,,,,,,,,,,0,133.7984809,134.3026981,134.3026981,133.7984809,None,,134.3026981,133.7984809,0.5042172,2.0267752,,,,,,,,,,,,,,Jocelyn_personal,1,2024_Feb_19_2130,nback-master,2021.1.4,60.07665781
4,4,1,PL_040_LEXINGTON16.png,nonlure,nontarget,Place,2-Back,1,0,1,0,,,,,0,5,5,5,,,,,,,,,,,,,,,,,0,136.3294733,136.8345956,136.8345956,136.3294733,None,,136.8345956,136.3294733,0.5051223,2.120899,,,,,,,,,,,,,,Jocelyn_personal,1,2024_Feb_19_2130,nback-master,2021.1.4,60.07665781
4,4,1,PL_041_LEXINGTON17.png,nonlure,nontarget,Place,2-Back,1,0,1,0,,,,,0,6,6,6,,,,,,,,,,,,,,,,,0,138.9554946,139.4500665,139.4500665,138.9554946,None,,139.4500665,138.9554946,0.4945719,2.4443318,,,,,,,,,,,,,,Jocelyn_personal,1,2024_Feb_19_2130,nback-master,2021.1.4,60.07665781
4,4,1,PL_039_LEXINGTON06.png,nonlure,nontarget,Place,2-Back,1,0,1,0,,,,,0,7,7,7,,,,,,,,,,,,,,,,,0,141.8943983,142.3984582,142.3984582,141.8943983,None,,142.3984582,141.8943983,0.5040599,2.0083501,,,,,,,,,,,,,,Jocelyn_personal,1,2024_Feb_19_2130,nback-master,2021.1.4,60.07665781
4,4,1,PL_041_LEXINGTON17.png,target,target,Place,2-Back,1,0,1,0,,,,,0,8,8,8,,,,,,,,,,,,,,,,,0,144.4068083,144.9135488,144.9135488,144.4068083,None,,144.9135488,144.4068083,0.5067405,2.0094179,,,,,,,,,,,,,,Jocelyn_personal,1,2024_Feb_19_2130,nback-master,2021.1.4,60.07665781
4,4,1,PL_039_LEXINGTON06.png,target,target,Place,2-Back,1,0,1,0,,,,,0,9,9,9,,,,,,,,,,,,,,,,,0,146.9229667,147.4288266,147.4288266,146.9229667,None,,147.4288266,146.9229667,0.5058599,-147.4288266,,,,,,,,,,,,,,Jocelyn_personal,1,2024_Feb_19_2130,nback-master,2021.1.4,60.07665781
,,,,,,,,1,0,1,0,,,,,,,,,,,,,,,,,,,,,,,,,,,,,,,,,,0,167.5906978,,,,,,149.427637,None,,,,,,,Jocelyn_personal,1,2024_Feb_19_2130,nback-master,2021.1.4,60.07665781
4,5,1,BP_049_MRBAI_BA.png,nonlure,nontarget,Body,0-Back,2,0,2,0,0,0,0,0,,,,,,,,,,,,,,,,,164.6221639,None,164.6221639,None,0,167.5906978,168.0839767,168.0839767,None,1,1.8197809,168.0839767,None,0.4932789,2.0700211,,,,,,,,,,,,,,Jocelyn_personal,1,2024_Feb_19_2130,nback-master,2021.1.4,60.07665781
4,5,1,BP_047_MLBHS_BA.png,nonlure,nontarget,Body,0-Back,2,0,2,0,0,1,1,1,,,,,,,,,,,,,,,,,,,,,0,170.1539978,170.6492888,170.6492888,170.1539978,1,1.8080932,170.6492888,170.1539978,0.495291,2.0395154,,,,,,,,,,,,,,Jocelyn_personal,1,2024_Feb_19_2130,nback-master,2021.1.4,60.07665781
4,5,1,BP_045_MLBFS_BA.png,nonlure,nontarget,Body,0-Back,2,0,2,0,0,2,2,2,,,,,,,,,,,,,,,,,,,,,0,172.6888042,173.1810845,173.1810845,172.6888042,1,1.9663789,173.1810845,172.6888042,0.4922803,2.0828129,,,,,,,,,,,,,,Jocelyn_personal,1,2024_Feb_19_2130,nback-master,2021.1.4,60.07665781
4,5,1,BP_048_MLCHS_BA.png,nonlure,nontarget,Body,0-Back,2,0,2,0,0,3,3,3,,,,,,,,,,,,,,,,,,,,,0,175.2638974,175.7631244,175.7631244,175.2638974,1,1.7827194,175.7631244,175.2638974,0.499227,2.01153,,,,,,,,,,,,,,Jocelyn_personal,1,2024_Feb_19_2130,nback-master,2021.1.4,60.07665781
4,5,1,BP_044_MLBFI_BA.png,target,target,Body,0-Back,2,0,2,0,0,4,4,4,,,,,,,,,,,,,,,,,,,,,1,177.7746544,178.2782951,178.2782951,177.7746544,1,1.9485143,178.2782951,177.7746544,0.5036407,2.0081732,,,,,,,,,,,,,,Jocelyn_personal,1,2024_Feb_19_2130,nback-master,2021.1.4,60.07665781
4,5,1,BP_048_MLCHS_BA.png,lure,nontarget,Body,0-Back,2,0,2,0,0,5,5,5,,,,,,,,,,,,,,,,,,,,,0,180.2864683,180.7934569,180.7934569,180.2864683,1,1.9052334,180.7934569,180.2864683,0.5069886,2.0110193,,,,,,,,,,,,,,Jocelyn_personal,1,2024_Feb_19_2130,nback-master,2021.1.4,60.07665781
4,5,1,BP_044_MLBFI_BA.png,target,target,Body,0-Back,2,0,2,0,0,6,6,6,,,,,,,,,,,,,,,,,,,,,1,182.8044762,183.3084768,183.3084768,182.8044762,1,0.2674868,183.3084768,182.8044762,0.5040006,2.010554,,,,,,,,,,,,,,Jocelyn_personal,1,2024_Feb_19_2130,nback-master,2021.1.4,60.07665781
4,5,1,BP_047_MLBHS_BA.png,lure,nontarget,Body,0-Back,2,0,2,0,0,7,7,7,,,,,,,,,,,,,,,,,,,,,0,185.3190308,185.8240751,185.8240751,185.3190308,None,,185.8240751,185.3190308,0.5050443,2.0189997,,,,,,,,,,,,,,Jocelyn_personal,1,2024_Feb_19_2130,nback-master,2021.1.4,60.07665781
4,5,1,BP_049_MRBAI_BA.png,lure,nontarget,Body,0-Back,2,0,2,0,0,8,8,8,,,,,,,,,,,,,,,,,,,,,0,187.8430748,188.3392337,188.3392337,187.8430748,None,,188.3392337,187.8430748,0.4961589,2.1134612,,,,,,,,,,,,,,Jocelyn_personal,1,2024_Feb_19_2130,nback-master,2021.1.4,60.07665781
4,5,1,BP_046_MLBHI_BA.png,nonlure,nontarget,Body,0-Back,2,0,2,0,0,9,9,9,,,,,,,,,,,,,,,,,,,,,0,190.4526949,190.954475,190.954475,190.4526949,None,,190.954475,190.4526949,0.5017801,2.0625934,,,,,,,,,,,,,,Jocelyn_personal,1,2024_Feb_19_2130,nback-master,2021.1.4,60.07665781
4,6,1,PL_048_SCENE05.png,nonlure,nontarget,Place,0-Back,2,0,2,0,,,,,0,0,0,0,,,,,,,,,,,,,,,,,0,195.9746433,196.4680778,196.4680778,None,None,,196.4680778,None,0.4934345,2.2872629,,193.0170684,None,193.0170684,None,,,,,,,,,Jocelyn_personal,1,2024_Feb_19_2130,nback-master,2021.1.4,60.07665781
4,6,1,PL_046_SCENE03.png,nonlure,nontarget,Place,0-Back,2,0,2,0,,,,,0,1,1,1,,,,,,,,,,,,,,,,,0,198.7553407,199.2499764,199.2499764,198.7553407,None,,199.2499764,198.7553407,0.4946357,2.0085433,,,,,,,,,,,,,,Jocelyn_personal,1,2024_Feb_19_2130,nback-master,2021.1.4,60.07665781
4,6,1,PL_045_SCENE02.png,target,target,Place,0-Back,2,0,2,0,,,,,0,2,2,2,,,,,,,,,,,,,,,,,0,201.2585197,201.7651304,201.7651304,201.2585197,None,,201.7651304,201.2585197,0.5066107,2.0094325,,,,,,,,,,,,,,Jocelyn_personal,1,2024_Feb_19_2130,nback-master,2021.1.4,60.07665781
4,6,1,PL_045_SCENE02.png,target,target,Place,0-Back,2,0,2,0,,,,,0,3,3,3,,,,,,,,,,,,,,,,,0,203.7745629,204.2803183,204.2803183,203.7745629,None,,204.2803183,203.7745629,0.5057554,2.0074146,,,,,,,,,,,,,,Jocelyn_personal,1,2024_Feb_19_2130,nback-master,2021.1.4,60.07665781
4,6,1,PL_046_SCENE03.png,lure,nontarget,Place,0-Back,2,0,2,0,,,,,0,4,4,4,,,,,,,,,,,,,,,,,0,206.2877329,206.7956699,206.7956699,206.2877329,None,,206.7956699,206.2877329,0.507937,2.1154126,,,,,,,,,,,,,,Jocelyn_personal,1,2024_Feb_19_2130,nback-master,2021.1.4,60.07665781
4,6,1,PL_049_SCENE06.png,nonlure,nontarget,Place,0-Back,2,0,2,0,,,,,0,5,5,5,,,,,,,,,,,,,,,,,1,208.9110825,209.4109943,209.4109943,208.9110825,2,1.7743992,209.4109943,208.9110825,0.4999118,2.0291367,,,,,,,,,,,,,,Jocelyn_personal,1,2024_Feb_19_2130,nback-master,2021.1.4,60.07665781
4,6,1,PL_047_SCENE04.png,nonlure,nontarget,Place,0-Back,2,0,2,0,,,,,0,6,6,6,,,,,,,,,,,,,,,,,1,211.440131,211.9424572,211.9424572,211.440131,2,1.9332668,211.9424572,211.440131,0.5023262,2.00789,,,,,,,,,,,,,,Jocelyn_personal,1,2024_Feb_19_2130,nback-master,2021.1.4,60.07665781
4,6,1,PL_048_SCENE05.png,lure,nontarget,Place,0-Back,2,0,2,0,,,,,0,7,7,7,,,,,,,,,,,,,,,,,1,213.9503472,214.4579256,214.4579256,213.9503472,2,1.8355941,214.4579256,213.9503472,0.5075784,2.0699532,,,,,,,,,,,,,,Jocelyn_personal,1,2024_Feb_19_2130,nback-master,2021.1.4,60.07665781
4,6,1,PL_050_SCENE07.png,nonlure,nontarget,Place,0-Back,2,0,2,0,,,,,0,8,8,8,,,,,,,,,,,,,,,,,1,216.5278788,217.0238257,217.0238257,216.5278788,2,1.9053425,217.0238257,216.5278788,0.4959469,2.0098554,,,,,,,,,,,,,,Jocelyn_personal,1,2024_Feb_19_2130,nback-master,2021.1.4,60.07665781
4,6,1,PL_047_SCENE04.png,lure,nontarget,Place,0-Back,2,0,2,0,,,,,0,9,9,9,,,,,,,,,,,,,,,,,1,219.0336811,219.5382596,219.5382596,219.0336811,2,1.6723758,219.5382596,219.0336811,0.5045785,-219.5382596,,,,,,,,,,,,,,Jocelyn_personal,1,2024_Feb_19_2130,nback-master,2021.1.4,60.07665781
,,,,,,,,2,0,2,0,,,,,,,,,,,,,,,,,,,,,,,,,,,,,,,,,,0,239.4880428,,,,,,221.5378917,None,,,,,,,Jocelyn_personal,1,2024_Feb_19_2130,nback-master,2021.1.4,60.07665781
4,7,1,FC_044_F22.png,nonlure,nontarget,Face,2-Back,3,0,3,0,0,0,0,0,,,,,,,,,,,,,,,,,236.6035479,None,236.6035479,None,0,239.4880428,239.9936911,239.9936911,None,None,,239.9936911,None,0.5056483,2.1413498,,,,,,,,,,,,,,Jocelyn_personal,1,2024_Feb_19_2130,nback-master,2021.1.4,60.07665781
4,7,1,FC_046_F23.png,nonlure,nontarget,Face,2-Back,3,0,3,0,0,1,1,1,,,,,,,,,,,,,,,,,,,,,0,242.1350409,242.6422545,242.6422545,242.1350409,None,,242.6422545,242.1350409,0.5072136,2.0252876,,,,,,,,,,,,,,Jocelyn_personal,1,2024_Feb_19_2130,nback-master,2021.1.4,60.07665781
4,7,1,FC_044_F22.png,target,target,Face,2-Back,3,0,3,0,0,2,2,2,,,,,,,,,,,,,,,,,,,,,0,244.6675421,245.1741279,245.1741279,244.6675421,None,,245.1741279,244.6675421,0.5065858,2.0231188,,,,,,,,,,,,,,Jocelyn_personal,1,2024_Feb_19_2130,nback-master,2021.1.4,60.07665781
4,7,1,FC_046_F23.png,target,target,Face,2-Back,3,0,3,0,0,3,3,3,,,,,,,,,,,,,,,,,,,,,0,247.1972467,247.6894622,247.6894622,247.1972467,None,,247.6894622,247.1972467,0.4922155,2.2428784,,,,,,,,,,,,,,Jocelyn_personal,1,2024_Feb_19_2130,nback-master,2021.1.4,60.07665781
4,7,1,FC_043_M22.png,nonlure,nontarget,Face,2-Back,3,0,3,0,0,4,4,4,,,,,,,,,,,,,,,,,,,,,0,249.9323406,250.4379773,250.4379773,249.9323406,None,,250.4379773,249.9323406,0.5056367,2.041166,,,,,,,,,,,,,,Jocelyn_personal,1,2024_Feb_19_2130,nback-master,2021.1.4,60.07665781
4,7,1,FC_045_M23.png,nonlure,nontarget,Face,2-Back,3,0,3,0,0,5,5,5,,,,,,,,,,,,,,,,,,,,,0,252.4791433,252.9863863,252.9863863,252.4791433,None,,252.9863863,252.4791433,0.507243,2.0197802,,,,,,,,,,,,,,Jocelyn_personal,1,2024_Feb_19_2130,nback-master,2021.1.4,60.07665781
4,7,1,FC_045_M23.png,lure,nontarget,Face,2-Back,3,0,3,0,0,6,6,6,,,,,,,,,,,,,,,,,,,,,0,255.0061665,255.5013574,255.5013574,255.0061665,None,,255.5013574,255.0061665,0.4951909,2.0212206,,,,,,,,,,,,,,Jocelyn_personal,1,2024_Feb_19_2130,nback-master,2021.1.4,60.07665781
4,7,1,FC_043_M22.png,lure,nontarget,Face,2-Back,3,0,3,0,0,7,7,7,,,,,,,,,,,,,,,,,,,,,0,257.522578,258.01684,258.01684,257.522578,None,,258.01684,257.522578,0.494262,2.0422605,,,,,,,,,,,,,,Jocelyn_personal,1,2024_Feb_19_2130,nback-master,2021.1.4,60.07665781
4,7,1,FC_047_M24.png,nonlure,nontarget,Face,2-Back,3,0,3,0,0,8,8,8,,,,,,,,,,,,,,,,,,,,,0,260.0591005,260.5652858,260.5652858,260.0591005,None,,260.5652858,260.0591005,0.5061853,2.0452876,,,,,,,,,,,,,,Jocelyn_personal,1,2024_Feb_19_2130,nback-master,2021.1.4,60.07665781
4,7,1,FC_048_F24.png,nonlure,nontarget,Face,2-Back,3,0,3,0,0,9,9,9,,,,,,,,,,,,,,,,,,,,,0,262.6105734,263.1140751,263.1140751,262.6105734,None,,263.1140751,262.6105734,0.5035017,2.0346221,,,,,,,,,,,,,,Jocelyn_personal,1,2024_Feb_19_2130,nback-master,2021.1.4,60.07665781
4,8,1,TO_046_TOOL46_BA.png,nonlure,nontarget,Tools,2-Back,3,0,3,0,,,,,0,0,0,0,,,,,,,,,,,,,,,,,0,268.0049071,268.5108452,268.5108452,None,None,,268.5108452,None,0.5059381,2.0059473,,265.1486972,None,265.1486972,None,,,,,,,,,Jocelyn_personal,1,2024_Feb_19_2130,nback-master,2021.1.4,60.07665781
4,8,1,TO_046_TOOL46_BA.png,lure,nontarget,Tools,2-Back,3,0,3,0,,,,,0,1,1,1,,,,,,,,,,,,,,,,,0,270.5167925,271.0264039,271.0264039,270.5167925,None,,271.0264039,270.5167925,0.5096114,2.0258126,,,,,,,,,,,,,,Jocelyn_personal,1,2024_Feb_19_2130,nback-master,2021.1.4,60.07665781
4,8,1,TO_045_TOOL45_BA.png,nonlure,nontarget,Tools,2-Back,3,0,3,0,,,,,0,2,2,2,,,,,,,,,,,,,,,,,0,273.0522165,273.5579405,273.5579405,273.0522165,None,,273.5579405,273.0522165,0.505724,2.0182649,,,,,,,,,,,,,,Jocelyn_personal,1,2024_Feb_19_2130,nback-master,2021.1.4,60.07665781
4,8,1,TO_043_TOOL43_BA.png,nonlure,nontarget,Tools,2-Back,3,0,3,0,,,,,0,3,3,3,,,,,,,,,,,,,,,,,0,275.5762054,276.0733536,276.0733536,275.5762054,None,,276.0733536,275.5762054,0.4971482,2.0059748,,,,,,,,,,,,,,Jocelyn_personal,1,2024_Feb_19_2130,nback-master,2021.1.4,60.07665781
4,8,1,TO_045_TOOL45_BA.png,target,target,Tools,2-Back,3,0,3,0,,,,,0,4,4,4,,,,,,,,,,,,,,,,,0,278.0793284,278.5718886,278.5718886,278.0793284,None,,278.5718886,278.0793284,0.4925602,2.0213351,,,,,,,,,,,,,,Jocelyn_personal,1,2024_Feb_19_2130,nback-master,2021.1.4,60.07665781
4,8,1,TO_044_TOOL44_BA.png,nonlure,nontarget,Tools,2-Back,3,0,3,0,,,,,0,5,5,5,,,,,,,,,,,,,,,,,0,280.5932237,281.0874619,281.0874619,280.5932237,None,,281.0874619,280.5932237,0.4942382,2.0015963,,,,,,,,,,,,,,Jocelyn_personal,1,2024_Feb_19_2130,nback-master,2021.1.4,60.07665781
4,8,1,TO_043_TOOL43_BA.png,lure,nontarget,Tools,2-Back,3,0,3,0,,,,,0,6,6,6,,,,,,,,,,,,,,,,,0,283.0890582,283.5858524,283.5858524,283.0890582,None,,283.5858524,283.0890582,0.4967942,2.0029978,,,,,,,,,,,,,,Jocelyn_personal,1,2024_Feb_19_2130,nback-master,2021.1.4,60.07665781
4,8,1,TO_044_TOOL44_BA.png,target,target,Tools,2-Back,3,0,3,0,,,,,0,7,7,7,,,,,,,,,,,,,,,,,0,285.5888502,286.0845219,286.0845219,285.5888502,None,,286.0845219,285.5888502,0.4956717,2.0251263,,,,,,,,,,,,,,Jocelyn_personal,1,2024_Feb_19_2130,nback-master,2021.1.4,60.07665781
4,8,1,TO_048_TOOL48_BA.png,nonlure,nontarget,Tools,2-Back,3,0,3,0,,,,,0,8,8,8,,,,,,,,,,,,,,,,,0,288.1096482,288.6163703,288.6163703,288.1096482,None,,288.6163703,288.1096482,0.5067221,2.0225303,,,,,,,,,,,,,,Jocelyn_personal,1,2024_Feb_19_2130,nback-master,2021.1.4,60.07665781
4,8,1,TO_047_TOOL47_BA.png,nonlure,nontarget,Tools,2-Back,3,0,3,0,,,,,0,9,9,9,,,,,,,,,,,,,,,,,0,290.6389006,291.1316527,291.1316527,290.6389006,None,,291.1316527,290.6389006,0.4927521,-291.1316527,,,,,,,,,,,,,,Jocelyn_personal,1,2024_Feb_19_2130,nback-master,2021.1.4,60.07665781
,,,,,,,,3,0,3,0,,,,,,,,,,,,,,,,,,,,,,,,,,,,,,,,,,0,311.2008045,,,,,,293.1303632,None,,,,,,,Jocelyn_personal,1,2024_Feb_19_2130,nback-master,2021.1.4,60.07665781
3,1,1,TO_028_TOOL28_BA.png,nonlure,nontarget,Tools,0-Back,4,0,4,0,0,0,0,0,,,,,,,,,,,,,,,,,308.2894248,None,308.2894248,None,0,311.2008045,311.7035413,311.7035413,None,None,,311.7035413,None,0.5027368,2.0357189,,,,,,,,,,,,,,Jocelyn_personal,1,2024_Feb_19_2130,nback-master,2021.1.4,60.07665781
3,1,1,TO_026_TOOL26_BA.png,nonlure,nontarget,Tools,0-Back,4,0,4,0,0,1,1,1,,,,,,,,,,,,,,,,,,,,,0,313.7392602,314.2353799,314.2353799,313.7392602,None,,314.2353799,313.7392602,0.4961197,2.0047174,,,,,,,,,,,,,,Jocelyn_personal,1,2024_Feb_19_2130,nback-master,2021.1.4,60.07665781
3,1,1,TO_025_TOOL25_BA.png,target,target,Tools,0-Back,4,0,4,0,0,2,2,2,,,,,,,,,,,,,,,,,,,,,0,316.2400973,316.733986,316.733986,316.2400973,None,,316.733986,316.2400973,0.4938887,2.0042226,,,,,,,,,,,,,,Jocelyn_personal,1,2024_Feb_19_2130,nback-master,2021.1.4,60.07665781
3,1,1,TO_026_TOOL26_BA.png,lure,nontarget,Tools,0-Back,4,0,4,0,0,3,3,3,,,,,,,,,,,,,,,,,,,,,0,318.7382086,319.2327476,319.2327476,318.7382086,None,,319.2327476,318.7382086,0.494539,2.1102963,,,,,,,,,,,,,,Jocelyn_personal,1,2024_Feb_19_2130,nback-master,2021.1.4,60.07665781
3,1,1,TO_030_TOOL30_BA.png,nonlure,nontarget,Tools,0-Back,4,0,4,0,0,4,4,4,,,,,,,,,,,,,,,,,,,,,0,321.3430439,321.8475538,321.8475538,321.3430439,None,,321.8475538,321.3430439,0.5045099,2.0049812,,,,,,,,,,,,,,Jocelyn_personal,1,2024_Feb_19_2130,nback-master,2021.1.4,60.07665781
3,1,1,TO_025_TOOL25_BA.png,target,target,Tools,0-Back,4,0,4,0,0,5,5,5,,,,,,,,,,,,,,,,,,,,,0,323.852535,324.3465288,324.3465288,323.852535,None,,324.3465288,323.852535,0.4939938,2.0496755,,,,,,,,,,,,,,Jocelyn_personal,1,2024_Feb_19_2130,nback-master,2021.1.4,60.07665781
3,1,1,TO_027_TOOL27_BA.png,nonlure,nontarget,Tools,0-Back,4,0,4,0,0,6,6,6,,,,,,,,,,,,,,,,,,,,,0,326.3962043,326.8949925,326.8949925,326.3962043,None,,326.8949925,326.3962043,0.4987882,2.0030343,,,,,,,,,,,,,,Jocelyn_personal,1,2024_Feb_19_2130,nback-master,2021.1.4,60.07665781
3,1,1,TO_030_TOOL30_BA.png,lure,nontarget,Tools,0-Back,4,0,4,0,0,7,7,7,,,,,,,,,,,,,,,,,,,,,0,328.8980268,329.3936604,329.3936604,328.8980268,None,,329.3936604,328.8980268,0.4956336,2.0089753,,,,,,,,,,,,,,Jocelyn_personal,1,2024_Feb_19_2130,nback-master,2021.1.4,60.07665781
3,1,1,TO_028_TOOL28_BA.png,lure,nontarget,Tools,0-Back,4,0,4,0,0,8,8,8,,,,,,,,,,,,,,,,,,,,,0,331.4026357,331.9088459,331.9088459,331.4026357,None,,331.9088459,331.4026357,0.5062102,2.0238561,,,,,,,,,,,,,,Jocelyn_personal,1,2024_Feb_19_2130,nback-master,2021.1.4,60.07665781
3,1,1,TO_029_TOOL29_BA.png,nonlure,nontarget,Tools,0-Back,4,0,4,0,0,9,9,9,,,,,,,,,,,,,,,,,,,,,0,333.932702,334.4408093,334.4408093,333.932702,None,,334.4408093,333.932702,0.5081073,2.0858152,,,,,,,,,,,,,,Jocelyn_personal,1,2024_Feb_19_2130,nback-master,2021.1.4,60.07665781
3,2,1,FC_029_M15.png,nonlure,nontarget,Face,2-Back,4,0,4,0,,,,,0,0,0,0,,,,,,,,,,,,,,,,,0,339.4189032,339.9210406,339.9210406,None,None,,339.9210406,None,0.5021374,2.0579697,,336.5266245,None,336.5266245,None,,,,,,,,,Jocelyn_personal,1,2024_Feb_19_2130,nback-master,2021.1.4,60.07665781
3,2,1,FC_026_F13.png,nonlure,nontarget,Face,2-Back,4,0,4,0,,,,,0,1,1,1,,,,,,,,,,,,,,,,,0,341.9790103,342.4861848,342.4861848,341.9790103,None,,342.4861848,341.9790103,0.5071745,2.0204874,,,,,,,,,,,,,,Jocelyn_personal,1,2024_Feb_19_2130,nback-master,2021.1.4,60.07665781
3,2,1,FC_029_M15.png,target,target,Face,2-Back,4,0,4,0,,,,,0,2,2,2,,,,,,,,,,,,,,,,,0,344.5066722,345.0015586,345.0015586,344.5066722,None,,345.0015586,344.5066722,0.4948864,2.040432,,,,,,,,,,,,,,Jocelyn_personal,1,2024_Feb_19_2130,nback-master,2021.1.4,60.07665781
3,2,1,FC_028_F14.png,nonlure,nontarget,Face,2-Back,4,0,4,0,,,,,0,3,3,3,,,,,,,,,,,,,,,,,0,347.0419906,347.5498907,347.5498907,347.0419906,None,,347.5498907,347.0419906,0.5079001,2.1649696,,,,,,,,,,,,,,Jocelyn_personal,1,2024_Feb_19_2130,nback-master,2021.1.4,60.07665781
3,2,1,FC_025_M13.png,nonlure,nontarget,Face,2-Back,4,0,4,0,,,,,0,4,4,4,,,,,,,,,,,,,,,,,0,349.7148603,350.2155055,350.2155055,349.7148603,None,,350.2155055,349.7148603,0.5006452,2.0214904,,,,,,,,,,,,,,Jocelyn_personal,1,2024_Feb_19_2130,nback-master,2021.1.4,60.07665781
3,2,1,FC_026_F13.png,lure,nontarget,Face,2-Back,4,0,4,0,,,,,0,5,5,5,,,,,,,,,,,,,,,,,0,352.2369959,352.7304847,352.7304847,352.2369959,None,,352.7304847,352.2369959,0.4934888,2.0363554,,,,,,,,,,,,,,Jocelyn_personal,1,2024_Feb_19_2130,nback-master,2021.1.4,60.07665781
3,2,1,FC_027_M14.png,nonlure,nontarget,Face,2-Back,4,0,4,0,,,,,0,6,6,6,,,,,,,,,,,,,,,,,0,354.7668401,355.263125,355.263125,354.7668401,None,,355.263125,354.7668401,0.4962849,2.0189014,,,,,,,,,,,,,,Jocelyn_personal,1,2024_Feb_19_2130,nback-master,2021.1.4,60.07665781
3,2,1,FC_028_F14.png,lure,nontarget,Face,2-Back,4,0,4,0,,,,,0,7,7,7,,,,,,,,,,,,,,,,,0,357.2820264,357.7777471,357.7777471,357.2820264,None,,357.7777471,357.2820264,0.4957207,2.0154184,,,,,,,,,,,,,,Jocelyn_personal,1,2024_Feb_19_2130,nback-master,2021.1.4,60.07665781
3,2,1,FC_027_M14.png,target,target,Face,2-Back,4,0,4,0,,,,,0,8,8,8,,,,,,,,,,,,,,,,,0,359.7931655,360.29299,360.29299,359.7931655,None,,360.29299,359.7931655,0.4998245,2.1560179,,,,,,,,,,,,,,Jocelyn_personal,1,2024_Feb_19_2130,nback-master,2021.1.4,60.07665781
3,2,1,FC_030_F15.png,nonlure,nontarget,Face,2-Back,4,0,4,0,,,,,0,9,9,9,,,,,,,,,,,,,,,,,0,362.4490079,362.9413967,362.9413967,362.4490079,None,,362.9413967,362.4490079,0.4923888,-362.9413967,,,,,,,,,,,,,,Jocelyn_personal,1,2024_Feb_19_2130,nback-master,2021.1.4,60.07665781
,,,,,,,,4,0,4,0,,,,,,,,,,,,,,,,,,,,,,,,,,,,,,,,,,0,383.1155081,,,,,,364.9407524,None,,,,,,,Jocelyn_personal,1,2024_Feb_19_2130,nback-master,2021.1.4,60.07665781
3,3,1,BP_026_H8-T_BA.png,target,target,Body,0-Back,5,0,5,0,0,0,0,0,,,,,,,,,,,,,,,,,380.2426164,None,380.2426164,None,0,383.1155081,383.613295,383.613295,None,None,,383.613295,None,0.4977869,2.0690358,,,,,,,,,,,,,,Jocelyn_personal,1,2024_Feb_19_2130,nback-master,2021.1.4,60.07665781
3,3,1,BP_031_FLBHS_BA.png,nonlure,nontarget,Body,0-Back,5,0,5,0,0,1,1,1,,,,,,,,,,,,,,,,,,,,,0,385.6823308,386.1784776,386.1784776,385.6823308,None,,386.1784776,385.6823308,0.4961468,2.1192044,,,,,,,,,,,,,,Jocelyn_personal,1,2024_Feb_19_2130,nback-master,2021.1.4,60.07665781
3,3,1,BP_027_FBBHI_BA.png,nonlure,nontarget,Body,0-Back,5,0,5,0,0,2,2,2,,,,,,,,,,,,,,,,,,,,,0,388.297682,388.7937017,388.7937017,388.297682,None,,388.7937017,388.297682,0.4960197,2.0109092,,,,,,,,,,,,,,Jocelyn_personal,1,2024_Feb_19_2130,nback-master,2021.1.4,60.07665781
3,3,1,BP_026_H8-T_BA.png,target,target,Body,0-Back,5,0,5,0,0,3,3,3,,,,,,,,,,,,,,,,,,,,,0,390.8046109,391.3090151,391.3090151,390.8046109,None,,391.3090151,390.8046109,0.5044042,2.0145602,,,,,,,,,,,,,,Jocelyn_personal,1,2024_Feb_19_2130,nback-master,2021.1.4,60.07665781
3,3,1,BP_027_FBBHI_BA.png,lure,nontarget,Body,0-Back,5,0,5,0,0,4,4,4,,,,,,,,,,,,,,,,,,,,,0,393.3235753,393.8242105,393.8242105,393.3235753,None,,393.8242105,393.3235753,0.5006352,2.0263478,,,,,,,,,,,,,,Jocelyn_personal,1,2024_Feb_19_2130,nback-master,2021.1.4,60.07665781
3,3,1,BP_030_FLBFS_BA.png,nonlure,nontarget,Body,0-Back,5,0,5,0,0,5,5,5,,,,,,,,,,,,,,,,,,,,,0,395.8505583,396.3560423,396.3560423,395.8505583,None,,396.3560423,395.8505583,0.505484,2.1181781,,,,,,,,,,,,,,Jocelyn_personal,1,2024_Feb_19_2130,nback-master,2021.1.4,60.07665781
3,3,1,BP_029_FLBAS_BA.png,nonlure,nontarget,Body,0-Back,5,0,5,0,0,6,6,6,,,,,,,,,,,,,,,,,,,,,0,398.4742204,398.9711737,398.9711737,398.4742204,None,,398.9711737,398.4742204,0.4969533,2.048382,,,,,,,,,,,,,,Jocelyn_personal,1,2024_Feb_19_2130,nback-master,2021.1.4,60.07665781
3,3,1,BP_028_FBBHS_BA.png,nonlure,nontarget,Body,0-Back,5,0,5,0,0,7,7,7,,,,,,,,,,,,,,,,,,,,,0,401.0195557,401.5200244,401.5200244,401.0195557,None,,401.5200244,401.0195557,0.5004687,2.0102001,,,,,,,,,,,,,,Jocelyn_personal,1,2024_Feb_19_2130,nback-master,2021.1.4,60.07665781
3,3,1,BP_031_FLBHS_BA.png,lure,nontarget,Body,0-Back,5,0,5,0,0,8,8,8,,,,,,,,,,,,,,,,,,,,,0,403.5302245,404.0352989,404.0352989,403.5302245,None,,404.0352989,403.5302245,0.5050744,2.0073535,,,,,,,,,,,,,,Jocelyn_personal,1,2024_Feb_19_2130,nback-master,2021.1.4,60.07665781
3,3,1,BP_030_FLBFS_BA.png,lure,nontarget,Body,0-Back,5,0,5,0,0,9,9,9,,,,,,,,,,,,,,,,,,,,,0,406.0426524,406.5501464,406.5501464,406.0426524,None,,406.5501464,406.0426524,0.507494,2.0258311,,,,,,,,,,,,,,Jocelyn_personal,1,2024_Feb_19_2130,nback-master,2021.1.4,60.07665781
3,4,1,TO_033_TOOL33_BA.png,nonlure,nontarget,Tools,2-Back,5,0,5,0,,,,,0,0,0,0,,,,,,,,,,,,,,,,,0,411.4763639,411.9806933,411.9806933,None,None,,411.9806933,None,0.5043294,2.024371,,408.5759775,None,408.5759775,None,,,,,,,,,Jocelyn_personal,1,2024_Feb_19_2130,nback-master,2021.1.4,60.07665781
3,4,1,TO_031_TOOL31_BA.png,nonlure,nontarget,Tools,2-Back,5,0,5,0,,,,,0,1,1,1,,,,,,,,,,,,,,,,,0,414.0050643,414.5125517,414.5125517,414.0050643,None,,414.5125517,414.0050643,0.5074874,2.0042185,,,,,,,,,,,,,,Jocelyn_personal,1,2024_Feb_19_2130,nback-master,2021.1.4,60.07665781
3,4,1,TO_031_TOOL31_BA.png,lure,nontarget,Tools,2-Back,5,0,5,0,,,,,0,2,2,2,,,,,,,,,,,,,,,,,0,416.5167702,417.0113134,417.0113134,416.5167702,None,,417.0113134,416.5167702,0.4945432,2.0027947,,,,,,,,,,,,,,Jocelyn_personal,1,2024_Feb_19_2130,nback-master,2021.1.4,60.07665781
3,4,1,TO_033_TOOL33_BA.png,lure,nontarget,Tools,2-Back,5,0,5,0,,,,,0,3,3,3,,,,,,,,,,,,,,,,,0,419.0141081,419.5097663,419.5097663,419.0141081,None,,419.5097663,419.0141081,0.4956582,2.0257466,,,,,,,,,,,,,,Jocelyn_personal,1,2024_Feb_19_2130,nback-master,2021.1.4,60.07665781
3,4,1,TO_036_TOOL36_BA.png,nonlure,nontarget,Tools,2-Back,5,0,5,0,,,,,0,4,4,4,,,,,,,,,,,,,,,,,0,421.5355129,422.0419638,422.0419638,421.5355129,None,,422.0419638,421.5355129,0.5064509,2.0277828,,,,,,,,,,,,,,Jocelyn_personal,1,2024_Feb_19_2130,nback-master,2021.1.4,60.07665781
3,4,1,TO_034_TOOL34_BA.png,nonlure,nontarget,Tools,2-Back,5,0,5,0,,,,,0,5,5,5,,,,,,,,,,,,,,,,,0,424.0697466,424.5736345,424.5736345,424.0697466,None,,424.5736345,424.0697466,0.5038879,2.0292566,,,,,,,,,,,,,,Jocelyn_personal,1,2024_Feb_19_2130,nback-master,2021.1.4,60.07665781
3,4,1,TO_032_TOOL32_BA.png,nonlure,nontarget,Tools,2-Back,5,0,5,0,,,,,0,6,6,6,,,,,,,,,,,,,,,,,0,426.6028911,427.1056705,427.1056705,426.6028911,None,,427.1056705,426.6028911,0.5027794,2.0038691,,,,,,,,,,,,,,Jocelyn_personal,1,2024_Feb_19_2130,nback-master,2021.1.4,60.07665781
3,4,1,TO_034_TOOL34_BA.png,target,target,Tools,2-Back,5,0,5,0,,,,,0,7,7,7,,,,,,,,,,,,,,,,,0,429.1095396,429.6039145,429.6039145,429.1095396,None,,429.6039145,429.1095396,0.4943749,2.0042883,,,,,,,,,,,,,,Jocelyn_personal,1,2024_Feb_19_2130,nback-master,2021.1.4,60.07665781
3,4,1,TO_032_TOOL32_BA.png,target,target,Tools,2-Back,5,0,5,0,,,,,0,8,8,8,,,,,,,,,,,,,,,,,0,431.6082028,432.1026678,432.1026678,431.6082028,None,,432.1026678,431.6082028,0.494465,2.0216768,,,,,,,,,,,,,,Jocelyn_personal,1,2024_Feb_19_2130,nback-master,2021.1.4,60.07665781
3,4,1,TO_035_TOOL35_BA.png,nonlure,nontarget,Tools,2-Back,5,0,5,0,,,,,0,9,9,9,,,,,,,,,,,,,,,,,0,434.1243446,434.6178187,434.6178187,434.1243446,None,,434.6178187,434.1243446,0.4934741,-434.6178187,,,,,,,,,,,,,,Jocelyn_personal,1,2024_Feb_19_2130,nback-master,2021.1.4,60.07665781
,,,,,,,,5,0,5,0,,,,,,,,,,,,,,,,,,,,,,,,,,,,,,,,,,0,454.4891101,,,,,,436.6168864,None,,,,,,,Jocelyn_personal,1,2024_Feb_19_2130,nback-master,2021.1.4,60.07665781
3,5,1,PL_032_COLORADO.png,nonlure,nontarget,Place,2-Back,6,0,6,0,0,0,0,0,,,,,,,,,,,,,,,,,451.6719296,None,451.6719296,None,0,454.4891101,454.9899208,454.9899208,None,None,,454.9899208,None,0.5008107,2.0675888,,,,,,,,,,,,,,Jocelyn_personal,1,2024_Feb_19_2130,nback-master,2021.1.4,60.07665781
3,5,1,PL_029_SCENE_39.png,nonlure,nontarget,Place,2-Back,6,0,6,0,0,1,1,1,,,,,,,,,,,,,,,,,,,,,0,457.0575096,457.5549453,457.5549453,457.0575096,None,,457.5549453,457.0575096,0.4974357,2.0101971,,,,,,,,,,,,,,Jocelyn_personal,1,2024_Feb_19_2130,nback-master,2021.1.4,60.07665781
3,5,1,PL_032_COLORADO.png,target,target,Place,2-Back,6,0,6,0,0,2,2,2,,,,,,,,,,,,,,,,,,,,,0,459.5651424,460.0704361,460.0704361,459.5651424,None,,460.0704361,459.5651424,0.5052937,2.287707,,,,,,,,,,,,,,Jocelyn_personal,1,2024_Feb_19_2130,nback-master,2021.1.4,60.07665781
3,5,1,PL_028_SCENE_35.png,nonlure,nontarget,Place,2-Back,6,0,6,0,0,3,3,3,,,,,,,,,,,,,,,,,,,,,0,462.3581431,462.8522826,462.8522826,462.3581431,None,,462.8522826,462.3581431,0.4941395,2.1166376,,,,,,,,,,,,,,Jocelyn_personal,1,2024_Feb_19_2130,nback-master,2021.1.4,60.07665781
3,5,1,PL_031_CANAL.png,nonlure,nontarget,Place,2-Back,6,0,6,0,0,4,4,4,,,,,,,,,,,,,,,,,,,,,0,464.9689202,465.4675601,465.4675601,464.9689202,None,,465.4675601,464.9689202,0.4986399,2.0496182,,,,,,,,,,,,,,Jocelyn_personal,1,2024_Feb_19_2130,nback-master,2021.1.4,60.07665781
3,5,1,PL_030_SCENE_40.png,nonlure,nontarget,Place,2-Back,6,0,6,0,0,5,5,5,,,,,,,,,,,,,,,,,,,,,0,467.5171783,468.0160924,468.0160924,467.5171783,None,,468.0160924,467.5171783,0.4989141,2.0089074,,,,,,,,,,,,,,Jocelyn_personal,1,2024_Feb_19_2130,nback-master,2021.1.4,60.07665781
3,5,1,PL_031_CANAL.png,target,target,Place,2-Back,6,0,6,0,0,6,6,6,,,,,,,,,,,,,,,,,,,,,0,470.0249998,470.5310106,470.5310106,470.0249998,None,,470.5310106,470.0249998,0.5060108,2.027947,,,,,,,,,,,,,,Jocelyn_personal,1,2024_Feb_19_2130,nback-master,2021.1.4,60.07665781
3,5,1,PL_028_SCENE_35.png,lure,nontarget,Place,2-Back,6,0,6,0,0,7,7,7,,,,,,,,,,,,,,,,,,,,,0,472.5589576,473.0632445,473.0632445,472.5589576,None,,473.0632445,472.5589576,0.5042869,2.0460297,,,,,,,,,,,,,,Jocelyn_personal,1,2024_Feb_19_2130,nback-master,2021.1.4,60.07665781
3,5,1,PL_027_SCENE_27.png,nonlure,nontarget,Place,2-Back,6,0,6,0,0,8,8,8,,,,,,,,,,,,,,,,,,,,,0,475.1092742,475.6118426,475.6118426,475.1092742,None,,475.6118426,475.1092742,0.5025684,2.0242829,,,,,,,,,,,,,,Jocelyn_personal,1,2024_Feb_19_2130,nback-master,2021.1.4,60.07665781
3,5,1,PL_027_SCENE_27.png,lure,nontarget,Place,2-Back,6,0,6,0,0,9,9,9,,,,,,,,,,,,,,,,,,,,,0,477.6361255,478.1436935,478.1436935,477.6361255,None,,478.1436935,477.6361255,0.507568,2.0664883,,,,,,,,,,,,,,Jocelyn_personal,1,2024_Feb_19_2130,nback-master,2021.1.4,60.07665781
3,6,1,FC_033_M17.png,nonlure,nontarget,Face,0-Back,6,0,6,0,,,,,0,0,0,0,,,,,,,,,,,,,,,,,0,483.1572615,483.6571962,483.6571962,None,None,,483.6571962,None,0.4999347,2.0353128,,480.2101818,None,480.2101818,None,,,,,,,,,Jocelyn_personal,1,2024_Feb_19_2130,nback-master,2021.1.4,60.07665781
3,6,1,FC_032_F16.png,target,target,Face,0-Back,6,0,6,0,,,,,0,1,1,1,,,,,,,,,,,,,,,,,0,485.692509,486.1890012,486.1890012,485.692509,None,,486.1890012,485.692509,0.4964922,2.04789,,,,,,,,,,,,,,Jocelyn_personal,1,2024_Feb_19_2130,nback-master,2021.1.4,60.07665781
3,6,1,FC_035_M18.png,nonlure,nontarget,Face,0-Back,6,0,6,0,,,,,0,2,2,2,,,,,,,,,,,,,,,,,0,488.2368912,488.7375511,488.7375511,488.2368912,None,,488.7375511,488.2368912,0.5006599,2.0554997,,,,,,,,,,,,,,Jocelyn_personal,1,2024_Feb_19_2130,nback-master,2021.1.4,60.07665781
3,6,1,FC_036_F18.png,nonlure,nontarget,Face,0-Back,6,0,6,0,,,,,0,3,3,3,,,,,,,,,,,,,,,,,0,490.7930508,491.2863216,491.2863216,490.7930508,None,,491.2863216,490.7930508,0.4932708,2.0307934,,,,,,,,,,,,,,Jocelyn_personal,1,2024_Feb_19_2130,nback-master,2021.1.4,60.07665781
3,6,1,FC_032_F16.png,target,target,Face,0-Back,6,0,6,0,,,,,0,4,4,4,,,,,,,,,,,,,,,,,0,493.317115,493.8181809,493.8181809,493.317115,None,,493.8181809,493.317115,0.5010659,2.0432003,,,,,,,,,,,,,,Jocelyn_personal,1,2024_Feb_19_2130,nback-master,2021.1.4,60.07665781
3,6,1,FC_031_M16.png,nonlure,nontarget,Face,0-Back,6,0,6,0,,,,,0,5,5,5,,,,,,,,,,,,,,,,,0,495.8613812,496.3669189,496.3669189,495.8613812,None,,496.3669189,495.8613812,0.5055377,2.0303134,,,,,,,,,,,,,,Jocelyn_personal,1,2024_Feb_19_2130,nback-master,2021.1.4,60.07665781
3,6,1,FC_036_F18.png,lure,nontarget,Face,0-Back,6,0,6,0,,,,,0,6,6,6,,,,,,,,,,,,,,,,,0,498.3972323,498.8987501,498.8987501,498.3972323,None,,498.8987501,498.3972323,0.5015178,2.0214667,,,,,,,,,,,,,,Jocelyn_personal,1,2024_Feb_19_2130,nback-master,2021.1.4,60.07665781
3,6,1,FC_035_M18.png,lure,nontarget,Face,0-Back,6,0,6,0,,,,,0,7,7,7,,,,,,,,,,,,,,,,,0,500.9202168,501.4139522,501.4139522,500.9202168,None,,501.4139522,500.9202168,0.4937354,2.1447791,,,,,,,,,,,,,,Jocelyn_personal,1,2024_Feb_19_2130,nback-master,2021.1.4,60.07665781
3,6,1,FC_034_F17.png,nonlure,nontarget,Face,0-Back,6,0,6,0,,,,,0,8,8,8,,,,,,,,,,,,,,,,,0,503.5587313,504.0624363,504.0624363,503.5587313,None,,504.0624363,503.5587313,0.503705,2.0206167,,,,,,,,,,,,,,Jocelyn_personal,1,2024_Feb_19_2130,nback-master,2021.1.4,60.07665781
3,6,1,FC_033_M17.png,lure,nontarget,Face,0-Back,6,0,6,0,,,,,0,9,9,9,,,,,,,,,,,,,,,,,0,506.083053,506.5778181,506.5778181,506.083053,None,,506.5778181,506.083053,0.4947651,-506.5778181,,,,,,,,,,,,,,Jocelyn_personal,1,2024_Feb_19_2130,nback-master,2021.1.4,60.07665781
,,,,,,,,6,0,6,0,,,,,,,,,,,,,,,,,,,,,,,,,,,,,,,,,,0,526.6924057,,,,,,508.5763258,None,,,,,,,Jocelyn_personal,1,2024_Feb_19_2130,nback-master,2021.1.4,60.07665781
3,7,1,PL_035_LEXINGTON02.png,nonlure,nontarget,Place,0-Back,7,0,7,0,0,0,0,0,,,,,,,,,,,,,,,,,523.7193927,None,523.7193927,None,0,526.6924057,527.1827348,527.1827348,None,None,,527.1827348,None,0.4903291,2.0429652,,,,,,,,,,,,,,Jocelyn_personal,1,2024_Feb_19_2130,nback-master,2021.1.4,60.07665781
3,7,1,PL_038_LEXINGTON05.png,nonlure,nontarget,Place,0-Back,7,0,7,0,0,1,1,1,,,,,,,,,,,,,,,,,,,,,0,529.2257,529.7311372,529.7311372,529.2257,None,,529.7311372,529.2257,0.5054372,2.0083224,,,,,,,,,,,,,,Jocelyn_personal,1,2024_Feb_19_2130,nback-master,2021.1.4,60.07665781
3,7,1,PL_033_DESERT.png,target,target,Place,0-Back,7,0,7,0,0,2,2,2,,,,,,,,,,,,,,,,,,,,,0,531.7394596,532.2467083,532.2467083,531.7394596,None,,532.2467083,531.7394596,0.5072487,2.0366811,,,,,,,,,,,,,,Jocelyn_personal,1,2024_Feb_19_2130,nback-master,2021.1.4,60.07665781
3,7,1,PL_037_LEXINGTON04.png,nonlure,nontarget,Place,0-Back,7,0,7,0,0,3,3,3,,,,,,,,,,,,,,,,,,,,,0,534.2833894,534.7783146,534.7783146,534.2833894,None,,534.7783146,534.2833894,0.4949252,2.008142,,,,,,,,,,,,,,Jocelyn_personal,1,2024_Feb_19_2130,nback-master,2021.1.4,60.07665781
3,7,1,PL_037_LEXINGTON04.png,lure,nontarget,Place,0-Back,7,0,7,0,0,4,4,4,,,,,,,,,,,,,,,,,,,,,0,536.7864566,537.2937306,537.2937306,536.7864566,None,,537.2937306,536.7864566,0.507274,2.0077493,,,,,,,,,,,,,,Jocelyn_personal,1,2024_Feb_19_2130,nback-master,2021.1.4,60.07665781
3,7,1,PL_038_LEXINGTON05.png,lure,nontarget,Place,0-Back,7,0,7,0,0,5,5,5,,,,,,,,,,,,,,,,,,,,,0,539.3014799,539.8090291,539.8090291,539.3014799,None,,539.8090291,539.3014799,0.5075492,2.0265663,,,,,,,,,,,,,,Jocelyn_personal,1,2024_Feb_19_2130,nback-master,2021.1.4,60.07665781
3,7,1,PL_034_FOXISLAND.png,nonlure,nontarget,Place,0-Back,7,0,7,0,0,6,6,6,,,,,,,,,,,,,,,,,,,,,0,541.8355954,542.34107,542.34107,541.8355954,None,,542.34107,541.8355954,0.5054746,2.0275761,,,,,,,,,,,,,,Jocelyn_personal,1,2024_Feb_19_2130,nback-master,2021.1.4,60.07665781
3,7,1,PL_036_LEXINGTON03.png,nonlure,nontarget,Place,0-Back,7,0,7,0,0,7,7,7,,,,,,,,,,,,,,,,,,,,,0,544.3686461,544.8730666,544.8730666,544.3686461,None,,544.8730666,544.3686461,0.5044205,2.007954,,,,,,,,,,,,,,Jocelyn_personal,1,2024_Feb_19_2130,nback-master,2021.1.4,60.07665781
3,7,1,PL_033_DESERT.png,target,target,Place,0-Back,7,0,7,0,0,8,8,8,,,,,,,,,,,,,,,,,,,,,0,546.8810206,547.3882459,547.3882459,546.8810206,None,,547.3882459,546.8810206,0.5072253,2.0072773,,,,,,,,,,,,,,Jocelyn_personal,1,2024_Feb_19_2130,nback-master,2021.1.4,60.07665781
3,7,1,PL_036_LEXINGTON03.png,lure,nontarget,Place,0-Back,7,0,7,0,0,9,9,9,,,,,,,,,,,,,,,,,,,,,0,549.3955232,549.9034215,549.9034215,549.3955232,None,,549.9034215,549.3955232,0.5078983,2.4565245,,,,,,,,,,,,,,Jocelyn_personal,1,2024_Feb_19_2130,nback-master,2021.1.4,60.07665781
3,8,1,BP_035_FLPUS_BA.png,nonlure,nontarget,Body,2-Back,7,0,7,0,,,,,0,0,0,0,,,,,,,,,,,,,,,,,0,555.2149248,555.7168942,555.7168942,None,None,,555.7168942,None,0.5019694,2.1253407,,552.359946,None,552.359946,None,,,,,,,,,Jocelyn_personal,1,2024_Feb_19_2130,nback-master,2021.1.4,60.07665781
3,8,1,BP_037_FRBFS_BA.png,nonlure,nontarget,Body,2-Back,7,0,7,0,,,,,0,1,1,1,,,,,,,,,,,,,,,,,0,557.8422349,558.3488557,558.3488557,557.8422349,None,,558.3488557,557.8422349,0.5066208,2.058063,,,,,,,,,,,,,,Jocelyn_personal,1,2024_Feb_19_2130,nback-master,2021.1.4,60.07665781
3,8,1,BP_036_FRBAI_BA.png,nonlure,nontarget,Body,2-Back,7,0,7,0,,,,,0,2,2,2,,,,,,,,,,,,,,,,,0,560.4069187,560.9139742,560.9139742,560.4069187,None,,560.9139742,560.4069187,0.5070555,2.0096816,,,,,,,,,,,,,,Jocelyn_personal,1,2024_Feb_19_2130,nback-master,2021.1.4,60.07665781
3,8,1,BP_037_FRBFS_BA.png,target,target,Body,2-Back,7,0,7,0,,,,,0,3,3,3,,,,,,,,,,,,,,,,,0,562.9236558,563.4292454,563.4292454,562.9236558,None,,563.4292454,562.9236558,0.5055896,2.0165536,,,,,,,,,,,,,,Jocelyn_personal,1,2024_Feb_19_2130,nback-master,2021.1.4,60.07665781
3,8,1,BP_036_FRBAI_BA.png,target,target,Body,2-Back,7,0,7,0,,,,,0,4,4,4,,,,,,,,,,,,,,,,,0,565.445799,565.9445187,565.9445187,565.445799,None,,565.9445187,565.445799,0.4987197,2.4334959,,,,,,,,,,,,,,Jocelyn_personal,1,2024_Feb_19_2130,nback-master,2021.1.4,60.07665781
3,8,1,BP_033_FLCHS_BA.png,nonlure,nontarget,Body,2-Back,7,0,7,0,,,,,0,5,5,5,,,,,,,,,,,,,,,,,0,568.3780146,568.8761682,568.8761682,568.3780146,None,,568.8761682,568.3780146,0.4981536,2.0493952,,,,,,,,,,,,,,Jocelyn_personal,1,2024_Feb_19_2130,nback-master,2021.1.4,60.07665781
3,8,1,BP_032_FLCHI_BA.png,nonlure,nontarget,Body,2-Back,7,0,7,0,,,,,0,6,6,6,,,,,,,,,,,,,,,,,0,570.9255634,571.4248541,571.4248541,570.9255634,None,,571.4248541,570.9255634,0.4992907,2.0303962,,,,,,,,,,,,,,Jocelyn_personal,1,2024_Feb_19_2130,nback-master,2021.1.4,60.07665781
3,8,1,BP_034_FLPUI_BA.png,nonlure,nontarget,Body,2-Back,7,0,7,0,,,,,0,7,7,7,,,,,,,,,,,,,,,,,0,573.4552503,573.9566923,573.9566923,573.4552503,None,,573.9566923,573.4552503,0.501442,2.0100712,,,,,,,,,,,,,,Jocelyn_personal,1,2024_Feb_19_2130,nback-master,2021.1.4,60.07665781
3,8,1,BP_034_FLPUI_BA.png,lure,nontarget,Body,2-Back,7,0,7,0,,,,,0,8,8,8,,,,,,,,,,,,,,,,,0,575.9667635,576.4720309,576.4720309,575.9667635,None,,576.4720309,575.9667635,0.5052674,2.0096552,,,,,,,,,,,,,,Jocelyn_personal,1,2024_Feb_19_2130,nback-master,2021.1.4,60.07665781
3,8,1,BP_033_FLCHS_BA.png,lure,nontarget,Body,2-Back,7,0,7,0,,,,,0,9,9,9,,,,,,,,,,,,,,,,,0,578.4816861,578.9871699,578.9871699,578.4816861,None,,578.9871699,578.4816861,0.5054838,-578.9871699,,,,,,,,,,,,,,Jocelyn_personal,1,2024_Feb_19_2130,nback-master,2021.1.4,60.07665781
,,,,,,,,7,0,7,0,,,,,,,,,,,,,,,,,,,,,,,,,,,,,,,,,,0,0,,,,,,580.9858679,None,,,,,,,Jocelyn_personal,1,2024_Feb_19_2130,nback-master,2021.1.4,60.07665781
,,,,,,,,,,,,,,,,,,,,,,,,,,,,,,,,,,,,,,,,,,,,,0,0,,,,,,,,595.994056,None,q,26.9922675,595.994056,None,Jocelyn_personal,1,2024_Feb_19_2130,nback-master,2021.1.4,60.07665781
