Run,Block,Weight,Stimulus,TargetType,CorrectResponse,StimType,BlockType,block.thisRepN,block.thisTrialN,block.thisN,block.thisIndex,trials.thisRepN,trials.thisTrialN,trials.thisN,trials.thisIndex,trials_2.thisRepN,trials_2.thisTrialN,trials_2.thisN,trials_2.thisIndex,trigger_txt.started,trigger_txt.stopped,trigger_resp.keys,trigger_resp.rt,trigger_resp.started,trigger_resp.stopped,instr_txt.started,instr_txt.stopped,prepared_resp.keys,prepared_resp.rt,prepared_resp.started,prepared_resp.stopped,prep_instr.started,prep_instr.stopped,target.started,target.stopped,corr_var,stim_trial_fixation.started,stim_trial_fixation.stopped,image.started,image.stopped,key_resp.keys,key_resp.started,key_resp.stopped,prep_instr_2.started,prep_instr_2.stopped,target_2.started,target_2.stopped,rest_txt.started,rest_txt.stopped,end_txt.started,end_txt.stopped,end_key_resp.keys,end_key_resp.rt,end_key_resp.started,end_key_resp.stopped,participant,session,date,expName,psychopyVersion,frameRate,
,,,,,,,,,,,,,,,,,,,,81.1228145999994,None,s,4.32170060000135,81.1228145999994,None,,,,,,,,,,,,,,,,,,,,,,,,,,,,,,,Jocelyn_personal,001,2024_Feb_19_2145,nback-master,2021.1.4,60.05061065510308,
,,,,,,,,,,,,,,,,,,,,,,,,,,85.46674659999917,None,1,0.6444687000002887,85.46674659999917,None,,,,,,,,,,,,,,,,,,,,,,,,,Jocelyn_personal,001,2024_Feb_19_2145,nback-master,2021.1.4,60.05061065510308,
2,1,1,TO_014_TOOL14_BA.png,nonlure,nontarget,Tools,2-Back,0,0,0,0,0,0,0,0,,,,,,,,,,,,,,,,,86.32109850000052,None,86.32109850000052,None,0,89.40876500000013,89.913958000001,89.913958000001,None,None,89.913958000001,None,,,,,,,,,,,,,Jocelyn_personal,001,2024_Feb_19_2145,nback-master,2021.1.4,60.05061065510308,
2,1,1,TO_013_TOOL13_BA.png,nonlure,nontarget,Tools,2-Back,0,0,0,0,0,1,1,1,,,,,,,,,,,,,,,,,,,,,0,91.93988309999986,92.4459429999988,92.4459429999988,91.93988309999986,None,92.4459429999988,91.93988309999986,,,,,,,,,,,,,Jocelyn_personal,001,2024_Feb_19_2145,nback-master,2021.1.4,60.05061065510308,
2,1,1,TO_016_TOOL16_BA.png,nonlure,nontarget,Tools,2-Back,0,0,0,0,0,2,2,2,,,,,,,,,,,,,,,,,,,,,0,94.56413800000155,95.06129299999884,95.06129299999884,94.56413800000155,None,95.06129299999884,94.56413800000155,,,,,,,,,,,,,Jocelyn_personal,001,2024_Feb_19_2145,nback-master,2021.1.4,60.05061065510308,
2,1,1,TO_014_TOOL14_BA.png,lure,nontarget,Tools,2-Back,0,0,0,0,0,3,3,3,,,,,,,,,,,,,,,,,,,,,0,97.0647123000017,97.55998309999995,97.55998309999995,97.0647123000017,None,97.55998309999995,97.0647123000017,,,,,,,,,,,,,Jocelyn_personal,001,2024_Feb_19_2145,nback-master,2021.1.4,60.05061065510308,
2,1,1,TO_016_TOOL16_BA.png,target,target,Tools,2-Back,0,0,0,0,0,4,4,4,,,,,,,,,,,,,,,,,,,,,0,99.56751440000153,100.07524130000093,100.07524130000093,99.56751440000153,None,100.07524130000093,99.56751440000153,,,,,,,,,,,,,Jocelyn_personal,001,2024_Feb_19_2145,nback-master,2021.1.4,60.05061065510308,
2,1,1,TO_018_TOOL18_BA.png,nonlure,nontarget,Tools,2-Back,0,0,0,0,0,5,5,5,,,,,,,,,,,,,,,,,,,,,0,102.19232430000193,102.69048750000002,102.69048750000002,102.19232430000193,None,102.69048750000002,102.19232430000193,,,,,,,,,,,,,Jocelyn_personal,001,2024_Feb_19_2145,nback-master,2021.1.4,60.05061065510308,
2,1,1,TO_017_TOOL17_BA.png,nonlure,nontarget,Tools,2-Back,0,0,0,0,0,6,6,6,,,,,,,,,,,,,,,,,,,,,0,104.72664100000111,105.22212299999956,105.22212299999956,104.72664100000111,None,105.22212299999956,104.72664100000111,,,,,,,,,,,,,Jocelyn_personal,001,2024_Feb_19_2145,nback-master,2021.1.4,60.05061065510308,
2,1,1,TO_018_TOOL18_BA.png,target,target,Tools,2-Back,0,0,0,0,0,7,7,7,,,,,,,,,,,,,,,,,,,,,0,107.22721240000101,107.7204782000008,107.7204782000008,107.22721240000101,None,107.7204782000008,107.22721240000101,,,,,,,,,,,,,Jocelyn_personal,001,2024_Feb_19_2145,nback-master,2021.1.4,60.05061065510308,
2,1,1,TO_015_TOOL15_BA.png,nonlure,nontarget,Tools,2-Back,0,0,0,0,0,8,8,8,,,,,,,,,,,,,,,,,,,,,0,109.7760726000015,110.26929409999866,110.26929409999866,109.7760726000015,None,110.26929409999866,109.7760726000015,,,,,,,,,,,,,Jocelyn_personal,001,2024_Feb_19_2145,nback-master,2021.1.4,60.05061065510308,
2,1,1,TO_017_TOOL17_BA.png,lure,nontarget,Tools,2-Back,0,0,0,0,0,9,9,9,,,,,,,,,,,,,,,,,,,,,0,112.27320669999972,112.76790869999968,112.76790869999968,112.27320669999972,None,112.76790869999968,112.27320669999972,,,,,,,,,,,,,Jocelyn_personal,001,2024_Feb_19_2145,nback-master,2021.1.4,60.05061065510308,
2,2,1,BP_015_H10-T_BA.png,nonlure,nontarget,Body,0-Back,0,0,0,0,,,,,0,0,0,0,,,,,,,,,,,,,,,,,0,118.34750300000087,118.84761960000105,118.84761960000105,None,None,118.84761960000105,None,115.21947409999848,None,115.21947409999848,None,,,,,,,,,Jocelyn_personal,001,2024_Feb_19_2145,nback-master,2021.1.4,60.05061065510308,
2,2,1,BP_018_H13-T_BA.png,nonlure,nontarget,Body,0-Back,0,0,0,0,,,,,0,1,1,1,,,,,,,,,,,,,,,,,0,120.87191800000073,121.37950089999867,121.37950089999867,120.87191800000073,None,121.37950089999867,120.87191800000073,,,,,,,,,,,,,Jocelyn_personal,001,2024_Feb_19_2145,nback-master,2021.1.4,60.05061065510308,
2,2,1,BP_014_BP9_BA.png,nonlure,nontarget,Body,0-Back,0,0,0,0,,,,,0,2,2,2,,,,,,,,,,,,,,,,,0,123.41595260000031,123.91159530000004,123.91159530000004,123.41595260000031,None,123.91159530000004,123.41595260000031,,,,,,,,,,,,,Jocelyn_personal,001,2024_Feb_19_2145,nback-master,2021.1.4,60.05061065510308,
2,2,1,BP_018_H13-T_BA.png,lure,nontarget,Body,0-Back,0,0,0,0,,,,,0,3,3,3,,,,,,,,,,,,,,,,,0,125.92055099999925,126.42691360000026,126.42691360000026,125.92055099999925,None,126.42691360000026,125.92055099999925,,,,,,,,,,,,,Jocelyn_personal,001,2024_Feb_19_2145,nback-master,2021.1.4,60.05061065510308,
2,2,1,BP_013_BP7_BA.png,target,target,Body,0-Back,0,0,0,0,,,,,0,4,4,4,,,,,,,,,,,,,,,,,0,128.43573299999844,128.94216999999844,128.94216999999844,128.43573299999844,None,128.94216999999844,128.43573299999844,,,,,,,,,,,,,Jocelyn_personal,001,2024_Feb_19_2145,nback-master,2021.1.4,60.05061065510308,
2,2,1,BP_015_H10-T_BA.png,lure,nontarget,Body,0-Back,0,0,0,0,,,,,0,5,5,5,,,,,,,,,,,,,,,,,0,130.9510345000017,131.45726819999982,131.45726819999982,130.9510345000017,None,131.45726819999982,130.9510345000017,,,,,,,,,,,,,Jocelyn_personal,001,2024_Feb_19_2145,nback-master,2021.1.4,60.05061065510308,
2,2,1,BP_016_H11-T_BA.png,nonlure,nontarget,Body,0-Back,0,0,0,0,,,,,0,6,6,6,,,,,,,,,,,,,,,,,0,133.48578669999915,133.98940850000145,133.98940850000145,133.48578669999915,None,133.98940850000145,133.48578669999915,,,,,,,,,,,,,Jocelyn_personal,001,2024_Feb_19_2145,nback-master,2021.1.4,60.05061065510308,
2,2,1,BP_013_BP7_BA.png,target,target,Body,0-Back,0,0,0,0,,,,,0,7,7,7,,,,,,,,,,,,,,,,,0,135.99949990000096,136.50467579999895,136.50467579999895,135.99949990000096,None,136.50467579999895,135.99949990000096,,,,,,,,,,,,,Jocelyn_personal,001,2024_Feb_19_2145,nback-master,2021.1.4,60.05061065510308,
2,2,1,BP_017_H12-T_BA.png,nonlure,nontarget,Body,0-Back,0,0,0,0,,,,,0,8,8,8,,,,,,,,,,,,,,,,,0,138.53339530000085,139.03679249999914,139.03679249999914,138.53339530000085,None,139.03679249999914,138.53339530000085,,,,,,,,,,,,,Jocelyn_personal,001,2024_Feb_19_2145,nback-master,2021.1.4,60.05061065510308,
2,2,1,BP_014_BP9_BA.png,lure,nontarget,Body,0-Back,0,0,0,0,,,,,0,9,9,9,,,,,,,,,,,,,,,,,0,141.04578540000148,141.5517390999994,141.5517390999994,141.04578540000148,None,141.5517390999994,141.04578540000148,,,,,,,,,,,,,Jocelyn_personal,001,2024_Feb_19_2145,nback-master,2021.1.4,60.05061065510308,
,,,,,,,,0,0,0,0,,,,,,,,,,,,,,,,,,,,,,,,,,,,,,,,,,,,,143.54995300000155,None,,,,,,,Jocelyn_personal,001,2024_Feb_19_2145,nback-master,2021.1.4,60.05061065510308,
2,3,1,FC_015_M8.png,nonlure,nontarget,Face,2-Back,1,0,1,0,0,0,0,0,,,,,,,,,,,,,,,,,158.6258968000002,None,158.6258968000002,None,0,161.6136030000016,162.1069486999986,162.1069486999986,None,None,162.1069486999986,None,,,,,,,,,,,,,Jocelyn_personal,001,2024_Feb_19_2145,nback-master,2021.1.4,60.05061065510308,
2,3,1,FC_018_F9.png,nonlure,nontarget,Face,2-Back,1,0,1,0,0,1,1,1,,,,,,,,,,,,,,,,,,,,,0,164.19203500000003,164.68892330000017,164.68892330000017,164.19203500000003,None,164.68892330000017,164.19203500000003,,,,,,,,,,,,,Jocelyn_personal,001,2024_Feb_19_2145,nback-master,2021.1.4,60.05061065510308,
2,3,1,FC_018_F9.png,lure,nontarget,Face,2-Back,1,0,1,0,0,2,2,2,,,,,,,,,,,,,,,,,,,,,0,166.71439800000007,167.22088069999882,167.22088069999882,166.71439800000007,None,167.22088069999882,166.71439800000007,,,,,,,,,,,,,Jocelyn_personal,001,2024_Feb_19_2145,nback-master,2021.1.4,60.05061065510308,
2,3,1,FC_017_M9.png,nonlure,nontarget,Face,2-Back,1,0,1,0,0,3,3,3,,,,,,,,,,,,,,,,,,,,,0,169.5177661000016,170.01944390000062,170.01944390000062,169.5177661000016,None,170.01944390000062,169.5177661000016,,,,,,,,,,,,,Jocelyn_personal,001,2024_Feb_19_2145,nback-master,2021.1.4,60.05061065510308,
2,3,1,FC_017_M9.png,lure,nontarget,Face,2-Back,1,0,1,0,0,4,4,4,,,,,,,,,,,,,,,,,,,,,0,172.039630700001,172.5344656999987,172.5344656999987,172.039630700001,None,172.5344656999987,172.039630700001,,,,,,,,,,,,,Jocelyn_personal,001,2024_Feb_19_2145,nback-master,2021.1.4,60.05061065510308,
2,3,1,FC_016_F8.png,nonlure,nontarget,Face,2-Back,1,0,1,0,0,5,5,5,,,,,,,,,,,,,,,,,,,,,0,174.58291929999905,175.08306900000025,175.08306900000025,174.58291929999905,None,175.08306900000025,174.58291929999905,,,,,,,,,,,,,Jocelyn_personal,001,2024_Feb_19_2145,nback-master,2021.1.4,60.05061065510308,
2,3,1,FC_013_M7.png,nonlure,nontarget,Face,2-Back,1,0,1,0,0,6,6,6,,,,,,,,,,,,,,,,,,,,,0,177.5363839999991,178.03158099999928,178.03158099999928,177.5363839999991,None,178.03158099999928,177.5363839999991,,,,,,,,,,,,,Jocelyn_personal,001,2024_Feb_19_2145,nback-master,2021.1.4,60.05061065510308,
2,3,1,FC_014_F7.png,nonlure,nontarget,Face,2-Back,1,0,1,0,0,7,7,7,,,,,,,,,,,,,,,,,,,,,0,180.0786584000016,180.57996809999895,180.57996809999895,180.0786584000016,None,180.57996809999895,180.0786584000016,,,,,,,,,,,,,Jocelyn_personal,001,2024_Feb_19_2145,nback-master,2021.1.4,60.05061065510308,
2,3,1,FC_013_M7.png,target,target,Face,2-Back,1,0,1,0,0,8,8,8,,,,,,,,,,,,,,,,,,,,,0,182.59717739999905,183.09518300000127,183.09518300000127,182.59717739999905,None,183.09518300000127,182.59717739999905,,,,,,,,,,,,,Jocelyn_personal,001,2024_Feb_19_2145,nback-master,2021.1.4,60.05061065510308,
2,3,1,FC_014_F7.png,target,target,Face,2-Back,1,0,1,0,0,9,9,9,,,,,,,,,,,,,,,,,,,,,0,185.12320589999945,185.6270637000016,185.6270637000016,185.12320589999945,None,185.6270637000016,185.12320589999945,,,,,,,,,,,,,Jocelyn_personal,001,2024_Feb_19_2145,nback-master,2021.1.4,60.05061065510308,
2,4,1,TO_019_TOOL19_BA.png,target,target,Tools,0-Back,1,0,1,0,,,,,0,0,0,0,,,,,,,,,,,,,,,,,0,190.65681530000074,191.15724219999902,191.15724219999902,None,None,191.15724219999902,None,187.65867179999987,None,187.65867179999987,None,,,,,,,,,Jocelyn_personal,001,2024_Feb_19_2145,nback-master,2021.1.4,60.05061065510308,
2,4,1,TO_024_TOOL24_BA.png,nonlure,nontarget,Tools,0-Back,1,0,1,0,,,,,0,1,1,1,,,,,,,,,,,,,,,,,0,193.18494270000156,193.68927410000106,193.68927410000106,193.18494270000156,None,193.68927410000106,193.18494270000156,,,,,,,,,,,,,Jocelyn_personal,001,2024_Feb_19_2145,nback-master,2021.1.4,60.05061065510308,
2,4,1,TO_019_TOOL19_BA.png,target,target,Tools,0-Back,1,0,1,0,,,,,0,2,2,2,,,,,,,,,,,,,,,,,0,195.69591220000075,196.18791580000106,196.18791580000106,195.69591220000075,None,196.18791580000106,195.69591220000075,,,,,,,,,,,,,Jocelyn_personal,001,2024_Feb_19_2145,nback-master,2021.1.4,60.05061065510308,
2,4,1,TO_023_TOOL23_BA.png,nonlure,nontarget,Tools,0-Back,1,0,1,0,,,,,0,3,3,3,,,,,,,,,,,,,,,,,0,198.21253050000087,198.71986209999886,198.71986209999886,198.21253050000087,None,198.71986209999886,198.21253050000087,,,,,,,,,,,,,Jocelyn_personal,001,2024_Feb_19_2145,nback-master,2021.1.4,60.05061065510308,
2,4,1,TO_020_TOOL20_BA.png,nonlure,nontarget,Tools,0-Back,1,0,1,0,,,,,0,4,4,4,,,,,,,,,,,,,,,,,0,201.01045819999854,201.5181388000019,201.5181388000019,201.01045819999854,None,201.5181388000019,201.01045819999854,,,,,,,,,,,,,Jocelyn_personal,001,2024_Feb_19_2145,nback-master,2021.1.4,60.05061065510308,
2,4,1,TO_020_TOOL20_BA.png,lure,nontarget,Tools,0-Back,1,0,1,0,,,,,0,5,5,5,,,,,,,,,,,,,,,,,0,203.52198090000093,204.01686070000142,204.01686070000142,203.52198090000093,None,204.01686070000142,203.52198090000093,,,,,,,,,,,,,Jocelyn_personal,001,2024_Feb_19_2145,nback-master,2021.1.4,60.05061065510308,
2,4,1,TO_022_TOOL22_BA.png,nonlure,nontarget,Tools,0-Back,1,0,1,0,,,,,0,6,6,6,,,,,,,,,,,,,,,,,0,206.13174150000123,206.63224949999858,206.63224949999858,206.13174150000123,None,206.63224949999858,206.13174150000123,,,,,,,,,,,,,Jocelyn_personal,001,2024_Feb_19_2145,nback-master,2021.1.4,60.05061065510308,
2,4,1,TO_022_TOOL22_BA.png,lure,nontarget,Tools,0-Back,1,0,1,0,,,,,0,7,7,7,,,,,,,,,,,,,,,,,0,208.6399867,209.14730860000054,209.14730860000054,208.6399867,None,209.14730860000054,208.6399867,,,,,,,,,,,,,Jocelyn_personal,001,2024_Feb_19_2145,nback-master,2021.1.4,60.05061065510308,
2,4,1,TO_021_TOOL21_BA.png,nonlure,nontarget,Tools,0-Back,1,0,1,0,,,,,0,8,8,8,,,,,,,,,,,,,,,,,0,211.55417260000104,212.0625469000006,212.0625469000006,211.55417260000104,None,212.0625469000006,211.55417260000104,,,,,,,,,,,,,Jocelyn_personal,001,2024_Feb_19_2145,nback-master,2021.1.4,60.05061065510308,
2,4,1,TO_021_TOOL21_BA.png,lure,nontarget,Tools,0-Back,1,0,1,0,,,,,0,9,9,9,,,,,,,,,,,,,,,,,0,214.06831210000018,214.5610927000016,214.5610927000016,214.06831210000018,None,214.5610927000016,214.06831210000018,,,,,,,,,,,,,Jocelyn_personal,001,2024_Feb_19_2145,nback-master,2021.1.4,60.05061065510308,
,,,,,,,,1,0,1,0,,,,,,,,,,,,,,,,,,,,,,,,,,,,,,,,,,,,,216.55979659999866,None,,,,,,,Jocelyn_personal,001,2024_Feb_19_2145,nback-master,2021.1.4,60.05061065510308,
2,5,1,BP_020_H17-T_BA.png,nonlure,nontarget,Body,2-Back,2,0,2,0,0,0,0,0,,,,,,,,,,,,,,,,,231.7220895999999,None,231.7220895999999,None,0,234.71522579999873,235.21604709999883,235.21604709999883,None,None,235.21604709999883,None,,,,,,,,,,,,,Jocelyn_personal,001,2024_Feb_19_2145,nback-master,2021.1.4,60.05061065510308,
2,5,1,BP_019_H14-T_BA.png,nonlure,nontarget,Body,2-Back,2,0,2,0,0,1,1,1,,,,,,,,,,,,,,,,,,,,,0,237.24556830000074,237.74797690000196,237.74797690000196,237.24556830000074,None,237.74797690000196,237.24556830000074,,,,,,,,,,,,,Jocelyn_personal,001,2024_Feb_19_2145,nback-master,2021.1.4,60.05061065510308,
2,5,1,BP_020_H17-T_BA.png,target,target,Body,2-Back,2,0,2,0,0,2,2,2,,,,,,,,,,,,,,,,,,,,,0,239.75754400000005,240.26324190000014,240.26324190000014,239.75754400000005,None,240.26324190000014,239.75754400000005,,,,,,,,,,,,,Jocelyn_personal,001,2024_Feb_19_2145,nback-master,2021.1.4,60.05061065510308,
2,5,1,BP_019_H14-T_BA.png,target,target,Body,2-Back,2,0,2,0,0,3,3,3,,,,,,,,,,,,,,,,,,,,,0,242.27363680000053,242.77819190000082,242.77819190000082,242.27363680000053,None,242.77819190000082,242.27363680000053,,,,,,,,,,,,,Jocelyn_personal,001,2024_Feb_19_2145,nback-master,2021.1.4,60.05061065510308,
2,5,1,BP_024_H3-T_BA.png,nonlure,nontarget,Body,2-Back,2,0,2,0,0,4,4,4,,,,,,,,,,,,,,,,,,,,,0,244.81486059999952,245.31045649999942,245.31045649999942,244.81486059999952,None,245.31045649999942,244.81486059999952,,,,,,,,,,,,,Jocelyn_personal,001,2024_Feb_19_2145,nback-master,2021.1.4,60.05061065510308,
2,5,1,BP_024_H3-T_BA.png,lure,nontarget,Body,2-Back,2,0,2,0,0,5,5,5,,,,,,,,,,,,,,,,,,,,,0,247.3197027999995,247.8254932000018,247.8254932000018,247.3197027999995,None,247.8254932000018,247.3197027999995,,,,,,,,,,,,,Jocelyn_personal,001,2024_Feb_19_2145,nback-master,2021.1.4,60.05061065510308,
2,5,1,BP_025_H5-T_BA.png,nonlure,nontarget,Body,2-Back,2,0,2,0,0,6,6,6,,,,,,,,,,,,,,,,,,,,,0,249.8532027000001,250.35754799999995,250.35754799999995,249.8532027000001,None,250.35754799999995,249.8532027000001,,,,,,,,,,,,,Jocelyn_personal,001,2024_Feb_19_2145,nback-master,2021.1.4,60.05061065510308,
2,5,1,BP_023_H25-T_BA.png,nonlure,nontarget,Body,2-Back,2,0,2,0,0,7,7,7,,,,,,,,,,,,,,,,,,,,,0,252.4007743000002,252.90618370000084,252.90618370000084,252.4007743000002,None,252.90618370000084,252.4007743000002,,,,,,,,,,,,,Jocelyn_personal,001,2024_Feb_19_2145,nback-master,2021.1.4,60.05061065510308,
2,5,1,BP_022_H24-T_BA.png,nonlure,nontarget,Body,2-Back,2,0,2,0,0,8,8,8,,,,,,,,,,,,,,,,,,,,,0,254.9346145999989,255.4378558999997,255.4378558999997,254.9346145999989,None,255.4378558999997,254.9346145999989,,,,,,,,,,,,,Jocelyn_personal,001,2024_Feb_19_2145,nback-master,2021.1.4,60.05061065510308,
2,5,1,BP_022_H24-T_BA.png,lure,nontarget,Body,2-Back,2,0,2,0,0,9,9,9,,,,,,,,,,,,,,,,,,,,,0,257.44837579999876,257.9533721000007,257.9533721000007,257.44837579999876,None,257.9533721000007,257.44837579999876,,,,,,,,,,,,,Jocelyn_personal,001,2024_Feb_19_2145,nback-master,2021.1.4,60.05061065510308,
2,6,1,PL_019_SCENE_05.png,nonlure,nontarget,Place,2-Back,2,0,2,0,,,,,0,0,0,0,,,,,,,,,,,,,,,,,0,263.2190551999993,263.7168122000003,263.7168122000003,None,None,263.7168122000003,None,260.11060120000184,None,260.11060120000184,None,,,,,,,,,Jocelyn_personal,001,2024_Feb_19_2145,nback-master,2021.1.4,60.05061065510308,
2,6,1,PL_017_SCENE_03.png,nonlure,nontarget,Place,2-Back,2,0,2,0,,,,,0,1,1,1,,,,,,,,,,,,,,,,,0,266.16815679999854,266.66535130000193,266.66535130000193,266.16815679999854,None,266.66535130000193,266.16815679999854,,,,,,,,,,,,,Jocelyn_personal,001,2024_Feb_19_2145,nback-master,2021.1.4,60.05061065510308,
2,6,1,PL_017_SCENE_03.png,lure,nontarget,Place,2-Back,2,0,2,0,,,,,0,2,2,2,,,,,,,,,,,,,,,,,0,268.6925388000018,269.19702849999885,269.19702849999885,268.6925388000018,None,269.19702849999885,268.6925388000018,,,,,,,,,,,,,Jocelyn_personal,001,2024_Feb_19_2145,nback-master,2021.1.4,60.05061065510308,
2,6,1,PL_016_SCENE_02.png,nonlure,nontarget,Place,2-Back,2,0,2,0,,,,,0,3,3,3,,,,,,,,,,,,,,,,,0,271.2412743999994,271.7455692000003,271.7455692000003,271.2412743999994,None,271.7455692000003,271.2412743999994,,,,,,,,,,,,,Jocelyn_personal,001,2024_Feb_19_2145,nback-master,2021.1.4,60.05061065510308,
2,6,1,PL_015_SCENE_01.png,nonlure,nontarget,Place,2-Back,2,0,2,0,,,,,0,4,4,4,,,,,,,,,,,,,,,,,0,273.80924049999885,274.31079899999895,274.31079899999895,273.80924049999885,None,274.31079899999895,273.80924049999885,,,,,,,,,,,,,Jocelyn_personal,001,2024_Feb_19_2145,nback-master,2021.1.4,60.05061065510308,
2,6,1,PL_016_SCENE_02.png,target,target,Place,2-Back,2,0,2,0,,,,,0,5,5,5,,,,,,,,,,,,,,,,,0,276.335197700002,276.8427190000002,276.8427190000002,276.335197700002,None,276.8427190000002,276.335197700002,,,,,,,,,,,,,Jocelyn_personal,001,2024_Feb_19_2145,nback-master,2021.1.4,60.05061065510308,
2,6,1,PL_015_SCENE_01.png,target,target,Place,2-Back,2,0,2,0,,,,,0,6,6,6,,,,,,,,,,,,,,,,,0,278.8687343999991,279.37465090000114,279.37465090000114,278.8687343999991,None,279.37465090000114,278.8687343999991,,,,,,,,,,,,,Jocelyn_personal,001,2024_Feb_19_2145,nback-master,2021.1.4,60.05061065510308,
2,6,1,PL_020_SCENE_06.png,nonlure,nontarget,Place,2-Back,2,0,2,0,,,,,0,7,7,7,,,,,,,,,,,,,,,,,0,281.4263548000017,281.92317130000083,281.92317130000083,281.4263548000017,None,281.92317130000083,281.4263548000017,,,,,,,,,,,,,Jocelyn_personal,001,2024_Feb_19_2145,nback-master,2021.1.4,60.05061065510308,
2,6,1,PL_020_SCENE_06.png,lure,nontarget,Place,2-Back,2,0,2,0,,,,,0,8,8,8,,,,,,,,,,,,,,,,,0,283.9505352999986,284.4552017999995,284.4552017999995,283.9505352999986,None,284.4552017999995,283.9505352999986,,,,,,,,,,,,,Jocelyn_personal,001,2024_Feb_19_2145,nback-master,2021.1.4,60.05061065510308,
2,6,1,PL_018_SCENE_04.png,nonlure,nontarget,Place,2-Back,2,0,2,0,,,,,0,9,9,9,,,,,,,,,,,,,,,,,0,286.505495100002,287.00371319999977,287.00371319999977,286.505495100002,None,287.00371319999977,286.505495100002,,,,,,,,,,,,,Jocelyn_personal,001,2024_Feb_19_2145,nback-master,2021.1.4,60.05061065510308,
,,,,,,,,2,0,2,0,,,,,,,,,,,,,,,,,,,,,,,,,,,,,,,,,,,,,289.00232120000146,None,,,,,,,Jocelyn_personal,001,2024_Feb_19_2145,nback-master,2021.1.4,60.05061065510308,
2,7,1,FC_024_F12.png,nonlure,nontarget,Face,0-Back,3,0,3,0,0,0,0,0,,,,,,,,,,,,,,,,,304.06824509999933,None,304.06824509999933,None,0,307.16339230000085,307.65880200000174,307.65880200000174,None,None,307.65880200000174,None,,,,,,,,,,,,,Jocelyn_personal,001,2024_Feb_19_2145,nback-master,2021.1.4,60.05061065510308,
2,7,1,FC_023_M12.png,nonlure,nontarget,Face,0-Back,3,0,3,0,0,1,1,1,,,,,,,,,,,,,,,,,,,,,0,309.7351473000017,310.2406219000004,310.2406219000004,309.7351473000017,None,310.2406219000004,309.7351473000017,,,,,,,,,,,,,Jocelyn_personal,001,2024_Feb_19_2145,nback-master,2021.1.4,60.05061065510308,
2,7,1,FC_020_F10.png,target,target,Face,0-Back,3,0,3,0,0,2,2,2,,,,,,,,,,,,,,,,,,,,,0,312.26446399999986,312.7726384999987,312.7726384999987,312.26446399999986,None,312.7726384999987,312.26446399999986,,,,,,,,,,,,,Jocelyn_personal,001,2024_Feb_19_2145,nback-master,2021.1.4,60.05061065510308,
2,7,1,FC_024_F12.png,lure,nontarget,Face,0-Back,3,0,3,0,0,3,3,3,,,,,,,,,,,,,,,,,,,,,0,314.7983401999991,315.304525800002,315.304525800002,314.7983401999991,None,315.304525800002,314.7983401999991,,,,,,,,,,,,,Jocelyn_personal,001,2024_Feb_19_2145,nback-master,2021.1.4,60.05061065510308,
2,7,1,FC_020_F10.png,target,target,Face,0-Back,3,0,3,0,0,4,4,4,,,,,,,,,,,,,,,,,,,,,0,317.3280295000004,317.8364732000009,317.8364732000009,317.3280295000004,None,317.8364732000009,317.3280295000004,,,,,,,,,,,,,Jocelyn_personal,001,2024_Feb_19_2145,nback-master,2021.1.4,60.05061065510308,
2,7,1,FC_022_F11.png,nonlure,nontarget,Face,0-Back,3,0,3,0,0,5,5,5,,,,,,,,,,,,,,,,,,,,,0,320.04286610000054,320.53491740000027,320.53491740000027,320.04286610000054,None,320.53491740000027,320.04286610000054,,,,,,,,,,,,,Jocelyn_personal,001,2024_Feb_19_2145,nback-master,2021.1.4,60.05061065510308,
2,7,1,FC_023_M12.png,lure,nontarget,Face,0-Back,3,0,3,0,0,6,6,6,,,,,,,,,,,,,,,,,,,,,0,322.55310779999854,323.05018819999896,323.05018819999896,322.55310779999854,None,323.05018819999896,322.55310779999854,,,,,,,,,,,,,Jocelyn_personal,001,2024_Feb_19_2145,nback-master,2021.1.4,60.05061065510308,
2,7,1,FC_021_M11.png,nonlure,nontarget,Face,0-Back,3,0,3,0,0,7,7,7,,,,,,,,,,,,,,,,,,,,,0,325.09445250000135,325.598675199999,325.598675199999,325.09445250000135,None,325.598675199999,325.09445250000135,,,,,,,,,,,,,Jocelyn_personal,001,2024_Feb_19_2145,nback-master,2021.1.4,60.05061065510308,
2,7,1,FC_021_M11.png,lure,nontarget,Face,0-Back,3,0,3,0,0,8,8,8,,,,,,,,,,,,,,,,,,,,,0,327.62188479999895,328.113889799999,328.113889799999,327.62188479999895,None,328.113889799999,327.62188479999895,,,,,,,,,,,,,Jocelyn_personal,001,2024_Feb_19_2145,nback-master,2021.1.4,60.05061065510308,
2,7,1,FC_019_M10.png,nonlure,nontarget,Face,0-Back,3,0,3,0,0,9,9,9,,,,,,,,,,,,,,,,,,,,,0,330.1558933999986,330.66240800000014,330.66240800000014,330.1558933999986,None,330.66240800000014,330.1558933999986,,,,,,,,,,,,,Jocelyn_personal,001,2024_Feb_19_2145,nback-master,2021.1.4,60.05061065510308,
2,8,1,PL_025_SCENE_18.png,nonlure,nontarget,Place,0-Back,3,0,3,0,,,,,0,0,0,0,,,,,,,,,,,,,,,,,0,335.7964662000013,336.2925393000005,336.2925393000005,None,None,336.2925393000005,None,332.7230697999985,None,332.7230697999985,None,,,,,,,,,Jocelyn_personal,001,2024_Feb_19_2145,nback-master,2021.1.4,60.05061065510308,
2,8,1,PL_026_SCENE_24.png,nonlure,nontarget,Place,0-Back,3,0,3,0,,,,,0,1,1,1,,,,,,,,,,,,,,,,,0,338.34566220000124,338.84114279999994,338.84114279999994,338.34566220000124,None,338.84114279999994,338.34566220000124,,,,,,,,,,,,,Jocelyn_personal,001,2024_Feb_19_2145,nback-master,2021.1.4,60.05061065510308,
2,8,1,PL_025_SCENE_18.png,lure,nontarget,Place,0-Back,3,0,3,0,,,,,0,2,2,2,,,,,,,,,,,,,,,,,0,340.86646960000144,341.3730797999997,341.3730797999997,340.86646960000144,None,341.3730797999997,340.86646960000144,,,,,,,,,,,,,Jocelyn_personal,001,2024_Feb_19_2145,nback-master,2021.1.4,60.05061065510308,
2,8,1,PL_022_SCENE_08.png,nonlure,nontarget,Place,0-Back,3,0,3,0,,,,,0,3,3,3,,,,,,,,,,,,,,,,,0,343.42128850000154,343.9215585999991,343.9215585999991,343.42128850000154,None,343.9215585999991,343.42128850000154,,,,,,,,,,,,,Jocelyn_personal,001,2024_Feb_19_2145,nback-master,2021.1.4,60.05061065510308,
2,8,1,PL_026_SCENE_24.png,lure,nontarget,Place,0-Back,3,0,3,0,,,,,0,4,4,4,,,,,,,,,,,,,,,,,0,345.94775949999894,346.45383539999966,346.45383539999966,345.94775949999894,None,346.45383539999966,345.94775949999894,,,,,,,,,,,,,Jocelyn_personal,001,2024_Feb_19_2145,nback-master,2021.1.4,60.05061065510308,
2,8,1,PL_021_SCENE_07.png,target,target,Place,0-Back,3,0,3,0,,,,,0,5,5,5,,,,,,,,,,,,,,,,,0,348.48105080000096,348.98567249999905,348.98567249999905,348.48105080000096,None,348.98567249999905,348.48105080000096,,,,,,,,,,,,,Jocelyn_personal,001,2024_Feb_19_2145,nback-master,2021.1.4,60.05061065510308,
2,8,1,PL_021_SCENE_07.png,target,target,Place,0-Back,3,0,3,0,,,,,0,6,6,6,,,,,,,,,,,,,,,,,0,351.0141315000001,351.51748729999963,351.51748729999963,351.0141315000001,None,351.51748729999963,351.0141315000001,,,,,,,,,,,,,Jocelyn_personal,001,2024_Feb_19_2145,nback-master,2021.1.4,60.05061065510308,
2,8,1,PL_023_SCENE_09.png,nonlure,nontarget,Place,0-Back,3,0,3,0,,,,,0,7,7,7,,,,,,,,,,,,,,,,,0,353.559286300002,354.0660811000016,354.0660811000016,353.559286300002,None,354.0660811000016,353.559286300002,,,,,,,,,,,,,Jocelyn_personal,001,2024_Feb_19_2145,nback-master,2021.1.4,60.05061065510308,
2,8,1,PL_024_SCENE_10.png,nonlure,nontarget,Place,0-Back,3,0,3,0,,,,,0,8,8,8,,,,,,,,,,,,,,,,,0,356.1020650999999,356.5980415000013,356.5980415000013,356.1020650999999,None,356.5980415000013,356.1020650999999,,,,,,,,,,,,,Jocelyn_personal,001,2024_Feb_19_2145,nback-master,2021.1.4,60.05061065510308,
2,8,1,PL_022_SCENE_08.png,lure,nontarget,Place,0-Back,3,0,3,0,,,,,0,9,9,9,,,,,,,,,,,,,,,,,0,358.62386680000054,359.1299008999995,359.1299008999995,358.62386680000054,None,359.1299008999995,358.62386680000054,,,,,,,,,,,,,Jocelyn_personal,001,2024_Feb_19_2145,nback-master,2021.1.4,60.05061065510308,
,,,,,,,,3,0,3,0,,,,,,,,,,,,,,,,,,,,,,,,,,,,,,,,,,,,,361.1286172,None,,,,,,,Jocelyn_personal,001,2024_Feb_19_2145,nback-master,2021.1.4,60.05061065510308,
7,1,1,BP_078_BODY_17_BA.png,nonlure,nontarget,Body,0-Back,4,0,4,0,0,0,0,0,,,,,,,,,,,,,,,,,376.27258540000184,None,376.27258540000184,None,0,379.3566666000006,379.8515636000011,379.8515636000011,None,None,379.8515636000011,None,,,,,,,,,,,,,Jocelyn_personal,001,2024_Feb_19_2145,nback-master,2021.1.4,60.05061065510308,
7,1,1,BP_074_BODY_13_BA.png,target,target,Body,0-Back,4,0,4,0,0,1,1,1,,,,,,,,,,,,,,,,,,,,,0,381.8631993000017,382.36694519999946,382.36694519999946,381.8631993000017,None,382.36694519999946,381.8631993000017,,,,,,,,,,,,,Jocelyn_personal,001,2024_Feb_19_2145,nback-master,2021.1.4,60.05061065510308,
7,1,1,BP_075_BODY_14_BA.png,nonlure,nontarget,Body,0-Back,4,0,4,0,0,2,2,2,,,,,,,,,,,,,,,,,,,,,0,384.49114270000064,384.99900609999895,384.99900609999895,384.49114270000064,None,384.99900609999895,384.49114270000064,,,,,,,,,,,,,Jocelyn_personal,001,2024_Feb_19_2145,nback-master,2021.1.4,60.05061065510308,
7,1,1,BP_076_BODY_15_BA.png,nonlure,nontarget,Body,0-Back,4,0,4,0,0,3,3,3,,,,,,,,,,,,,,,,,,,,,0,387.03127959999983,387.5307651000003,387.5307651000003,387.03127959999983,None,387.5307651000003,387.03127959999983,,,,,,,,,,,,,Jocelyn_personal,001,2024_Feb_19_2145,nback-master,2021.1.4,60.05061065510308,
7,1,1,BP_078_BODY_17_BA.png,lure,nontarget,Body,0-Back,4,0,4,0,0,4,4,4,,,,,,,,,,,,,,,,,,,,,0,389.54316010000184,390.04607229999965,390.04607229999965,389.54316010000184,None,390.04607229999965,389.54316010000184,,,,,,,,,,,,,Jocelyn_personal,001,2024_Feb_19_2145,nback-master,2021.1.4,60.05061065510308,
7,1,1,BP_079_BODY_18_BA.png,nonlure,nontarget,Body,0-Back,4,0,4,0,0,5,5,5,,,,,,,,,,,,,,,,,,,,,0,392.0875030999996,392.5945223000017,392.5945223000017,392.0875030999996,None,392.5945223000017,392.0875030999996,,,,,,,,,,,,,Jocelyn_personal,001,2024_Feb_19_2145,nback-master,2021.1.4,60.05061065510308,
7,1,1,BP_079_BODY_18_BA.png,lure,nontarget,Body,0-Back,4,0,4,0,0,6,6,6,,,,,,,,,,,,,,,,,,,,,0,394.6046668000017,395.10959809999986,395.10959809999986,394.6046668000017,None,395.10959809999986,394.6046668000017,,,,,,,,,,,,,Jocelyn_personal,001,2024_Feb_19_2145,nback-master,2021.1.4,60.05061065510308,
7,1,1,BP_077_BODY_16_BA.png,nonlure,nontarget,Body,0-Back,4,0,4,0,0,7,7,7,,,,,,,,,,,,,,,,,,,,,0,397.14738450000004,397.64160139999876,397.64160139999876,397.14738450000004,None,397.64160139999876,397.14738450000004,,,,,,,,,,,,,Jocelyn_personal,001,2024_Feb_19_2145,nback-master,2021.1.4,60.05061065510308,
7,1,1,BP_074_BODY_13_BA.png,target,target,Body,0-Back,4,0,4,0,0,8,8,8,,,,,,,,,,,,,,,,,,,,,0,399.6553512999999,400.1570544999995,400.1570544999995,399.6553512999999,None,400.1570544999995,399.6553512999999,,,,,,,,,,,,,Jocelyn_personal,001,2024_Feb_19_2145,nback-master,2021.1.4,60.05061065510308,
7,1,1,BP_075_BODY_14_BA.png,lure,nontarget,Body,0-Back,4,0,4,0,0,9,9,9,,,,,,,,,,,,,,,,,,,,,0,402.1677688999989,402.67200109999976,402.67200109999976,402.1677688999989,None,402.67200109999976,402.1677688999989,,,,,,,,,,,,,Jocelyn_personal,001,2024_Feb_19_2145,nback-master,2021.1.4,60.05061065510308,
7,2,1,PL_081_O10.1.png,nonlure,nontarget,Place,2-Back,4,0,4,0,,,,,0,0,0,0,,,,,,,,,,,,,,,,,0,407.86711379999906,408.36906050000107,408.36906050000107,None,None,408.36906050000107,None,404.81011539999963,None,404.81011539999963,None,,,,,,,,,Jocelyn_personal,001,2024_Feb_19_2145,nback-master,2021.1.4,60.05061065510308,
7,2,1,PL_081_O10.1.png,lure,nontarget,Place,2-Back,4,0,4,0,,,,,0,1,1,1,,,,,,,,,,,,,,,,,0,410.38353300000017,410.88434810000035,410.88434810000035,410.38353300000017,None,410.88434810000035,410.38353300000017,,,,,,,,,,,,,Jocelyn_personal,001,2024_Feb_19_2145,nback-master,2021.1.4,60.05061065510308,
7,2,1,PL_082_O11.1.png,nonlure,nontarget,Place,2-Back,4,0,4,0,,,,,0,2,2,2,,,,,,,,,,,,,,,,,0,412.91786570000113,413.41624930000035,413.41624930000035,412.91786570000113,None,413.41624930000035,412.91786570000113,,,,,,,,,,,,,Jocelyn_personal,001,2024_Feb_19_2145,nback-master,2021.1.4,60.05061065510308,
7,2,1,PL_077_P70.1.png,nonlure,nontarget,Place,2-Back,4,0,4,0,,,,,0,3,3,3,,,,,,,,,,,,,,,,,0,415.47447100000136,415.9811952000018,415.9811952000018,415.47447100000136,None,415.9811952000018,415.47447100000136,,,,,,,,,,,,,Jocelyn_personal,001,2024_Feb_19_2145,nback-master,2021.1.4,60.05061065510308,
7,2,1,PL_082_O11.1.png,target,target,Place,2-Back,4,0,4,0,,,,,0,4,4,4,,,,,,,,,,,,,,,,,0,417.99573280000186,418.4967519999991,418.4967519999991,417.99573280000186,None,418.4967519999991,417.99573280000186,,,,,,,,,,,,,Jocelyn_personal,001,2024_Feb_19_2145,nback-master,2021.1.4,60.05061065510308,
7,2,1,PL_078_P71.1.png,nonlure,nontarget,Place,2-Back,4,0,4,0,,,,,0,5,5,5,,,,,,,,,,,,,,,,,0,420.5302050999999,421.02865139999994,421.02865139999994,420.5302050999999,None,421.02865139999994,420.5302050999999,,,,,,,,,,,,,Jocelyn_personal,001,2024_Feb_19_2145,nback-master,2021.1.4,60.05061065510308,
7,2,1,PL_079_P72.1.png,nonlure,nontarget,Place,2-Back,4,0,4,0,,,,,0,6,6,6,,,,,,,,,,,,,,,,,0,423.10082669999974,423.5939533000019,423.5939533000019,423.10082669999974,None,423.5939533000019,423.10082669999974,,,,,,,,,,,,,Jocelyn_personal,001,2024_Feb_19_2145,nback-master,2021.1.4,60.05061065510308,
7,2,1,PL_077_P70.1.png,lure,nontarget,Place,2-Back,4,0,4,0,,,,,0,7,7,7,,,,,,,,,,,,,,,,,0,425.60712879999846,426.1090666000018,426.1090666000018,425.60712879999846,None,426.1090666000018,425.60712879999846,,,,,,,,,,,,,Jocelyn_personal,001,2024_Feb_19_2145,nback-master,2021.1.4,60.05061065510308,
7,2,1,PL_079_P72.1.png,target,target,Place,2-Back,4,0,4,0,,,,,0,8,8,8,,,,,,,,,,,,,,,,,0,428.1209990999996,428.6243708000002,428.6243708000002,428.1209990999996,None,428.6243708000002,428.1209990999996,,,,,,,,,,,,,Jocelyn_personal,001,2024_Feb_19_2145,nback-master,2021.1.4,60.05061065510308,
7,2,1,PL_080_O1.1.png,nonlure,nontarget,Place,2-Back,4,0,4,0,,,,,0,9,9,9,,,,,,,,,,,,,,,,,0,430.6725852000018,431.17316140000185,431.17316140000185,430.6725852000018,None,431.17316140000185,430.6725852000018,,,,,,,,,,,,,Jocelyn_personal,001,2024_Feb_19_2145,nback-master,2021.1.4,60.05061065510308,
,,,,,,,,4,0,4,0,,,,,,,,,,,,,,,,,,,,,,,,,,,,,,,,,,,,,433.1715557999996,None,,,,,,,Jocelyn_personal,001,2024_Feb_19_2145,nback-master,2021.1.4,60.05061065510308,
7,3,1,BP_080_BODY_19_BA.png,nonlure,nontarget,Body,2-Back,5,0,5,0,0,0,0,0,,,,,,,,,,,,,,,,,448.222903599999,None,448.222903599999,None,0,451.3028363000012,451.79460200000176,451.79460200000176,None,None,451.79460200000176,None,,,,,,,,,,,,,Jocelyn_personal,001,2024_Feb_19_2145,nback-master,2021.1.4,60.05061065510308,
7,3,1,BP_084_BODY_23_BA.png,nonlure,nontarget,Body,2-Back,5,0,5,0,0,1,1,1,,,,,,,,,,,,,,,,,,,,,0,454.2668346999999,454.75975929999913,454.75975929999913,454.2668346999999,None,454.75975929999913,454.2668346999999,,,,,,,,,,,,,Jocelyn_personal,001,2024_Feb_19_2145,nback-master,2021.1.4,60.05061065510308,
7,3,1,BP_080_BODY_19_BA.png,target,target,Body,2-Back,5,0,5,0,0,2,2,2,,,,,,,,,,,,,,,,,,,,,0,456.7724261000003,457.2751408000004,457.2751408000004,456.7724261000003,None,457.2751408000004,456.7724261000003,,,,,,,,,,,,,Jocelyn_personal,001,2024_Feb_19_2145,nback-master,2021.1.4,60.05061065510308,
7,3,1,BP_085_BODY_24_BA.png,nonlure,nontarget,Body,2-Back,5,0,5,0,0,3,3,3,,,,,,,,,,,,,,,,,,,,,0,459.40731049999886,459.90687470000194,459.90687470000194,459.40731049999886,None,459.90687470000194,459.40731049999886,,,,,,,,,,,,,Jocelyn_personal,001,2024_Feb_19_2145,nback-master,2021.1.4,60.05061065510308,
7,3,1,BP_085_BODY_24_BA.png,lure,nontarget,Body,2-Back,5,0,5,0,0,4,4,4,,,,,,,,,,,,,,,,,,,,,0,461.9201068000002,462.42214760000206,462.42214760000206,461.9201068000002,None,462.42214760000206,461.9201068000002,,,,,,,,,,,,,Jocelyn_personal,001,2024_Feb_19_2145,nback-master,2021.1.4,60.05061065510308,
7,3,1,BP_084_BODY_23_BA.png,lure,nontarget,Body,2-Back,5,0,5,0,0,5,5,5,,,,,,,,,,,,,,,,,,,,,0,464.43430739999894,464.93744180000067,464.93744180000067,464.43430739999894,None,464.93744180000067,464.43430739999894,,,,,,,,,,,,,Jocelyn_personal,001,2024_Feb_19_2145,nback-master,2021.1.4,60.05061065510308,
7,3,1,BP_082_BODY_21_BA.png,nonlure,nontarget,Body,2-Back,5,0,5,0,0,6,6,6,,,,,,,,,,,,,,,,,,,,,0,467.06619059999866,467.5691785000017,467.5691785000017,467.06619059999866,None,467.5691785000017,467.06619059999866,,,,,,,,,,,,,Jocelyn_personal,001,2024_Feb_19_2145,nback-master,2021.1.4,60.05061065510308,
7,3,1,BP_081_BODY_20_BA.png,nonlure,nontarget,Body,2-Back,5,0,5,0,0,7,7,7,,,,,,,,,,,,,,,,,,,,,0,469.61040649999995,470.1175086000003,470.1175086000003,469.61040649999995,None,470.1175086000003,469.61040649999995,,,,,,,,,,,,,Jocelyn_personal,001,2024_Feb_19_2145,nback-master,2021.1.4,60.05061065510308,
7,3,1,BP_083_BODY_22_BA.png,nonlure,nontarget,Body,2-Back,5,0,5,0,0,8,8,8,,,,,,,,,,,,,,,,,,,,,0,472.1517831000019,472.6495524999991,472.6495524999991,472.1517831000019,None,472.6495524999991,472.1517831000019,,,,,,,,,,,,,Jocelyn_personal,001,2024_Feb_19_2145,nback-master,2021.1.4,60.05061065510308,
7,3,1,BP_081_BODY_20_BA.png,target,target,Body,2-Back,5,0,5,0,0,9,9,9,,,,,,,,,,,,,,,,,,,,,0,474.65936729999885,475.16505959999995,475.16505959999995,474.65936729999885,None,475.16505959999995,474.65936729999885,,,,,,,,,,,,,Jocelyn_personal,001,2024_Feb_19_2145,nback-master,2021.1.4,60.05061065510308,
7,4,1,PL_086_O37.1.png,nonlure,nontarget,Place,0-Back,5,0,5,0,,,,,0,0,0,0,,,,,,,,,,,,,,,,,0,480.3646864000002,480.8618643000009,480.8618643000009,None,None,480.8618643000009,None,477.2150302000009,None,477.2150302000009,None,,,,,,,,,Jocelyn_personal,001,2024_Feb_19_2145,nback-master,2021.1.4,60.05061065510308,
7,4,1,PL_085_O3.1.png,nonlure,nontarget,Place,0-Back,5,0,5,0,,,,,0,1,1,1,,,,,,,,,,,,,,,,,0,483.1214450000007,483.62679019999996,483.62679019999996,483.1214450000007,None,483.62679019999996,483.1214450000007,,,,,,,,,,,,,Jocelyn_personal,001,2024_Feb_19_2145,nback-master,2021.1.4,60.05061065510308,
7,4,1,PL_083_O12.1.png,target,target,Place,0-Back,5,0,5,0,,,,,0,2,2,2,,,,,,,,,,,,,,,,,0,485.6401939999996,486.14221720000205,486.14221720000205,485.6401939999996,None,486.14221720000205,485.6401939999996,,,,,,,,,,,,,Jocelyn_personal,001,2024_Feb_19_2145,nback-master,2021.1.4,60.05061065510308,
7,4,1,PL_083_O12.1.png,target,target,Place,0-Back,5,0,5,0,,,,,0,3,3,3,,,,,,,,,,,,,,,,,0,488.154598000001,488.6574686999993,488.6574686999993,488.154598000001,None,488.6574686999993,488.154598000001,,,,,,,,,,,,,Jocelyn_personal,001,2024_Feb_19_2145,nback-master,2021.1.4,60.05061065510308,
7,4,1,PL_088_O42.1.png,nonlure,nontarget,Place,0-Back,5,0,5,0,,,,,0,4,4,4,,,,,,,,,,,,,,,,,0,490.78788780000104,491.2892893999997,491.2892893999997,490.78788780000104,None,491.2892893999997,490.78788780000104,,,,,,,,,,,,,Jocelyn_personal,001,2024_Feb_19_2145,nback-master,2021.1.4,60.05061065510308,
7,4,1,PL_088_O42.1.png,lure,nontarget,Place,0-Back,5,0,5,0,,,,,0,5,5,5,,,,,,,,,,,,,,,,,0,493.3024269000016,493.80423090000113,493.80423090000113,493.3024269000016,None,493.80423090000113,493.3024269000016,,,,,,,,,,,,,Jocelyn_personal,001,2024_Feb_19_2145,nback-master,2021.1.4,60.05061065510308,
7,4,1,PL_085_O3.1.png,lure,nontarget,Place,0-Back,5,0,5,0,,,,,0,6,6,6,,,,,,,,,,,,,,,,,0,495.81710880000173,496.31975520000196,496.31975520000196,495.81710880000173,None,496.31975520000196,495.81710880000173,,,,,,,,,,,,,Jocelyn_personal,001,2024_Feb_19_2145,nback-master,2021.1.4,60.05061065510308,
7,4,1,PL_087_O38.1.png,nonlure,nontarget,Place,0-Back,5,0,5,0,,,,,0,7,7,7,,,,,,,,,,,,,,,,,0,498.3620453000003,498.8680768000013,498.8680768000013,498.3620453000003,None,498.8680768000013,498.3620453000003,,,,,,,,,,,,,Jocelyn_personal,001,2024_Feb_19_2145,nback-master,2021.1.4,60.05061065510308,
7,4,1,PL_084_O2.1.png,nonlure,nontarget,Place,0-Back,5,0,5,0,,,,,0,8,8,8,,,,,,,,,,,,,,,,,0,500.89982379999856,501.4002951000002,501.4002951000002,500.89982379999856,None,501.4002951000002,500.89982379999856,,,,,,,,,,,,,Jocelyn_personal,001,2024_Feb_19_2145,nback-master,2021.1.4,60.05061065510308,
7,4,1,PL_087_O38.1.png,lure,nontarget,Place,0-Back,5,0,5,0,,,,,0,9,9,9,,,,,,,,,,,,,,,,,0,503.41474519999974,503.91559889999917,503.91559889999917,503.41474519999974,None,503.91559889999917,503.41474519999974,,,,,,,,,,,,,Jocelyn_personal,001,2024_Feb_19_2145,nback-master,2021.1.4,60.05061065510308,
,,,,,,,,5,0,5,0,,,,,,,,,,,,,,,,,,,,,,,,,,,,,,,,,,,,,505.9141860999989,None,,,,,,,Jocelyn_personal,001,2024_Feb_19_2145,nback-master,2021.1.4,60.05061065510308,
7,5,1,FC_073_M37.png,nonlure,nontarget,Face,2-Back,6,0,6,0,0,0,0,0,,,,,,,,,,,,,,,,,521.0623873000004,None,521.0623873000004,None,0,524.1247025000011,524.6206152999985,524.6206152999985,None,None,524.6206152999985,None,,,,,,,,,,,,,Jocelyn_personal,001,2024_Feb_19_2145,nback-master,2021.1.4,60.05061065510308,
7,5,1,FC_078_F39.png,nonlure,nontarget,Face,2-Back,6,0,6,0,0,1,1,1,,,,,,,,,,,,,,,,,,,,,0,526.6660391000005,527.169037300002,527.169037300002,526.6660391000005,None,527.169037300002,526.6660391000005,,,,,,,,,,,,,Jocelyn_personal,001,2024_Feb_19_2145,nback-master,2021.1.4,60.05061065510308,
7,5,1,FC_073_M37.png,target,target,Face,2-Back,6,0,6,0,0,2,2,2,,,,,,,,,,,,,,,,,,,,,0,529.1906221999998,529.6843078999991,529.6843078999991,529.1906221999998,None,529.6843078999991,529.1906221999998,,,,,,,,,,,,,Jocelyn_personal,001,2024_Feb_19_2145,nback-master,2021.1.4,60.05061065510308,
7,5,1,FC_076_F38.png,nonlure,nontarget,Face,2-Back,6,0,6,0,0,3,3,3,,,,,,,,,,,,,,,,,,,,,0,531.806335199999,532.2995895999993,532.2995895999993,531.806335199999,None,532.2995895999993,531.806335199999,,,,,,,,,,,,,Jocelyn_personal,001,2024_Feb_19_2145,nback-master,2021.1.4,60.05061065510308,
7,5,1,FC_075_M38.png,nonlure,nontarget,Face,2-Back,6,0,6,0,0,4,4,4,,,,,,,,,,,,,,,,,,,,,0,534.3669559000009,534.8649260999991,534.8649260999991,534.3669559000009,None,534.8649260999991,534.3669559000009,,,,,,,,,,,,,Jocelyn_personal,001,2024_Feb_19_2145,nback-master,2021.1.4,60.05061065510308,
7,5,1,FC_075_M38.png,lure,nontarget,Face,2-Back,6,0,6,0,0,5,5,5,,,,,,,,,,,,,,,,,,,,,0,536.8910028999999,537.3968249999998,537.3968249999998,536.8910028999999,None,537.3968249999998,536.8910028999999,,,,,,,,,,,,,Jocelyn_personal,001,2024_Feb_19_2145,nback-master,2021.1.4,60.05061065510308,
7,5,1,FC_076_F38.png,lure,nontarget,Face,2-Back,6,0,6,0,0,6,6,6,,,,,,,,,,,,,,,,,,,,,0,539.4270811999995,539.9288024999987,539.9288024999987,539.4270811999995,None,539.9288024999987,539.4270811999995,,,,,,,,,,,,,Jocelyn_personal,001,2024_Feb_19_2145,nback-master,2021.1.4,60.05061065510308,
7,5,1,FC_074_F37.png,nonlure,nontarget,Face,2-Back,6,0,6,0,0,7,7,7,,,,,,,,,,,,,,,,,,,,,0,541.9724917999993,542.4772287999986,542.4772287999986,541.9724917999993,None,542.4772287999986,541.9724917999993,,,,,,,,,,,,,Jocelyn_personal,001,2024_Feb_19_2145,nback-master,2021.1.4,60.05061065510308,
7,5,1,FC_077_M39.png,nonlure,nontarget,Face,2-Back,6,0,6,0,0,8,8,8,,,,,,,,,,,,,,,,,,,,,0,544.5365934000001,545.0425471000017,545.0425471000017,544.5365934000001,None,545.0425471000017,544.5365934000001,,,,,,,,,,,,,Jocelyn_personal,001,2024_Feb_19_2145,nback-master,2021.1.4,60.05061065510308,
7,5,1,FC_074_F37.png,target,target,Face,2-Back,6,0,6,0,0,9,9,9,,,,,,,,,,,,,,,,,,,,,0,547.0685278000019,547.5745252999986,547.5745252999986,547.0685278000019,None,547.5745252999986,547.0685278000019,,,,,,,,,,,,,Jocelyn_personal,001,2024_Feb_19_2145,nback-master,2021.1.4,60.05061065510308,
7,6,1,TO_075_TOOL75_BA.png,nonlure,nontarget,Tools,0-Back,6,0,6,0,,,,,0,0,0,0,,,,,,,,,,,,,,,,,0,552.7380780999993,553.2379000000001,553.2379000000001,None,None,553.2379000000001,None,549.6421613999992,None,549.6421613999992,None,,,,,,,,,Jocelyn_personal,001,2024_Feb_19_2145,nback-master,2021.1.4,60.05061065510308,
7,6,1,TO_077_TOOL77_BA.png,nonlure,nontarget,Tools,0-Back,6,0,6,0,,,,,0,1,1,1,,,,,,,,,,,,,,,,,0,555.2640476000015,555.7700073999986,555.7700073999986,555.2640476000015,None,555.7700073999986,555.2640476000015,,,,,,,,,,,,,Jocelyn_personal,001,2024_Feb_19_2145,nback-master,2021.1.4,60.05061065510308,
7,6,1,TO_073_TOOL73_BA.png,target,target,Tools,0-Back,6,0,6,0,,,,,0,2,2,2,,,,,,,,,,,,,,,,,0,557.7750220999988,558.2685127000004,558.2685127000004,557.7750220999988,None,558.2685127000004,557.7750220999988,,,,,,,,,,,,,Jocelyn_personal,001,2024_Feb_19_2145,nback-master,2021.1.4,60.05061065510308,
7,6,1,TO_078_TOOL78_BA.png,nonlure,nontarget,Tools,0-Back,6,0,6,0,,,,,0,3,3,3,,,,,,,,,,,,,,,,,0,560.2952196000006,560.8003613000001,560.8003613000001,560.2952196000006,None,560.8003613000001,560.2952196000006,,,,,,,,,,,,,Jocelyn_personal,001,2024_Feb_19_2145,nback-master,2021.1.4,60.05061065510308,
7,6,1,TO_077_TOOL77_BA.png,lure,nontarget,Tools,0-Back,6,0,6,0,,,,,0,4,4,4,,,,,,,,,,,,,,,,,0,562.806070300001,563.3155821,563.3155821,562.806070300001,None,563.3155821,562.806070300001,,,,,,,,,,,,,Jocelyn_personal,001,2024_Feb_19_2145,nback-master,2021.1.4,60.05061065510308,
7,6,1,TO_074_TOOL74_BA.png,nonlure,nontarget,Tools,0-Back,6,0,6,0,,,,,0,5,5,5,,,,,,,,,,,,,,,,,0,565.339110500001,565.8475417000009,565.8475417000009,565.339110500001,None,565.8475417000009,565.339110500001,,,,,,,,,,,,,Jocelyn_personal,001,2024_Feb_19_2145,nback-master,2021.1.4,60.05061065510308,
7,6,1,TO_074_TOOL74_BA.png,lure,nontarget,Tools,0-Back,6,0,6,0,,,,,0,6,6,6,,,,,,,,,,,,,,,,,0,567.8507331000001,568.3461501999991,568.3461501999991,567.8507331000001,None,568.3461501999991,567.8507331000001,,,,,,,,,,,,,Jocelyn_personal,001,2024_Feb_19_2145,nback-master,2021.1.4,60.05061065510308,
7,6,1,TO_076_TOOL76_BA.png,nonlure,nontarget,Tools,0-Back,6,0,6,0,,,,,0,7,7,7,,,,,,,,,,,,,,,,,0,570.4856991999986,570.9776908999993,570.9776908999993,570.4856991999986,None,570.9776908999993,570.4856991999986,,,,,,,,,,,,,Jocelyn_personal,001,2024_Feb_19_2145,nback-master,2021.1.4,60.05061065510308,
7,6,1,TO_075_TOOL75_BA.png,lure,nontarget,Tools,0-Back,6,0,6,0,,,,,0,8,8,8,,,,,,,,,,,,,,,,,0,572.9838588999992,573.476641600002,573.476641600002,572.9838588999992,None,573.476641600002,572.9838588999992,,,,,,,,,,,,,Jocelyn_personal,001,2024_Feb_19_2145,nback-master,2021.1.4,60.05061065510308,
7,6,1,TO_073_TOOL73_BA.png,target,target,Tools,0-Back,6,0,6,0,,,,,0,9,9,9,,,,,,,,,,,,,,,,,0,575.4812311999995,575.9751805000014,575.9751805000014,575.4812311999995,None,575.9751805000014,575.4812311999995,,,,,,,,,,,,,Jocelyn_personal,001,2024_Feb_19_2145,nback-master,2021.1.4,60.05061065510308,
,,,,,,,,6,0,6,0,,,,,,,,,,,,,,,,,,,,,,,,,,,,,,,,,,,,,577.9740039999997,None,,,,,,,Jocelyn_personal,001,2024_Feb_19_2145,nback-master,2021.1.4,60.05061065510308,
7,7,1,FC_083_M42.png,nonlure,nontarget,Face,0-Back,7,0,7,0,0,0,0,0,,,,,,,,,,,,,,,,,593.0422662000019,None,593.0422662000019,None,0,596.1818604,596.6802740999992,596.6802740999992,None,None,596.6802740999992,None,,,,,,,,,,,,,Jocelyn_personal,001,2024_Feb_19_2145,nback-master,2021.1.4,60.05061065510308,
7,7,1,FC_081_M41.png,nonlure,nontarget,Face,0-Back,7,0,7,0,0,1,1,1,,,,,,,,,,,,,,,,,,,,,0,598.7284443999997,599.2288536999986,599.2288536999986,598.7284443999997,None,599.2288536999986,598.7284443999997,,,,,,,,,,,,,Jocelyn_personal,001,2024_Feb_19_2145,nback-master,2021.1.4,60.05061065510308,
7,7,1,FC_084_F42.png,nonlure,nontarget,Face,0-Back,7,0,7,0,0,2,2,2,,,,,,,,,,,,,,,,,,,,,0,602.0682089000002,602.5602633999988,602.5602633999988,602.0682089000002,None,602.5602633999988,602.0682089000002,,,,,,,,,,,,,Jocelyn_personal,001,2024_Feb_19_2145,nback-master,2021.1.4,60.05061065510308,
7,7,1,FC_080_F40.png,target,target,Face,0-Back,7,0,7,0,0,3,3,3,,,,,,,,,,,,,,,,,,,,,0,604.5872333000007,605.0921441999999,605.0921441999999,604.5872333000007,None,605.0921441999999,604.5872333000007,,,,,,,,,,,,,Jocelyn_personal,001,2024_Feb_19_2145,nback-master,2021.1.4,60.05061065510308,
7,7,1,FC_082_F41.png,nonlure,nontarget,Face,0-Back,7,0,7,0,0,4,4,4,,,,,,,,,,,,,,,,,,,,,0,607.1410455000005,607.6405516999985,607.6405516999985,607.1410455000005,None,607.6405516999985,607.1410455000005,,,,,,,,,,,,,Jocelyn_personal,001,2024_Feb_19_2145,nback-master,2021.1.4,60.05061065510308,
7,7,1,FC_084_F42.png,lure,nontarget,Face,0-Back,7,0,7,0,0,5,5,5,,,,,,,,,,,,,,,,,,,,,0,609.6689246999995,610.1725619999997,610.1725619999997,609.6689246999995,None,610.1725619999997,609.6689246999995,,,,,,,,,,,,,Jocelyn_personal,001,2024_Feb_19_2145,nback-master,2021.1.4,60.05061065510308,
7,7,1,FC_079_M40.png,nonlure,nontarget,Face,0-Back,7,0,7,0,0,6,6,6,,,,,,,,,,,,,,,,,,,,,0,612.2306443000016,612.737821900002,612.737821900002,612.2306443000016,None,612.737821900002,612.2306443000016,,,,,,,,,,,,,Jocelyn_personal,001,2024_Feb_19_2145,nback-master,2021.1.4,60.05061065510308,
7,7,1,FC_083_M42.png,lure,nontarget,Face,0-Back,7,0,7,0,0,7,7,7,,,,,,,,,,,,,,,,,,,,,0,614.7621585000015,615.2695836999992,615.2695836999992,614.7621585000015,None,615.2695836999992,614.7621585000015,,,,,,,,,,,,,Jocelyn_personal,001,2024_Feb_19_2145,nback-master,2021.1.4,60.05061065510308,
7,7,1,FC_082_F41.png,lure,nontarget,Face,0-Back,7,0,7,0,0,8,8,8,,,,,,,,,,,,,,,,,,,,,0,617.2991426000008,617.801623899999,617.801623899999,617.2991426000008,None,617.801623899999,617.2991426000008,,,,,,,,,,,,,Jocelyn_personal,001,2024_Feb_19_2145,nback-master,2021.1.4,60.05061065510308,
7,7,1,FC_080_F40.png,target,target,Face,0-Back,7,0,7,0,0,9,9,9,,,,,,,,,,,,,,,,,,,,,0,619.8310061000011,620.3337796000014,620.3337796000014,619.8310061000011,None,620.3337796000014,619.8310061000011,,,,,,,,,,,,,Jocelyn_personal,001,2024_Feb_19_2145,nback-master,2021.1.4,60.05061065510308,
7,8,1,TO_080_TOOL80_BA.png,nonlure,nontarget,Tools,2-Back,7,0,7,0,,,,,0,0,0,0,,,,,,,,,,,,,,,,,0,625.4317891999999,625.9304754000004,625.9304754000004,None,None,625.9304754000004,None,622.3692819999997,None,622.3692819999997,None,,,,,,,,,Jocelyn_personal,001,2024_Feb_19_2145,nback-master,2021.1.4,60.05061065510308,
7,8,1,TO_081_TOOL81_BA.png,nonlure,nontarget,Tools,2-Back,7,0,7,0,,,,,0,1,1,1,,,,,,,,,,,,,,,,,0,627.9548273,628.4621348000001,628.4621348000001,627.9548273,None,628.4621348000001,627.9548273,,,,,,,,,,,,,Jocelyn_personal,001,2024_Feb_19_2145,nback-master,2021.1.4,60.05061065510308,
7,8,1,TO_079_TOOL79_BA.png,nonlure,nontarget,Tools,2-Back,7,0,7,0,,,,,0,2,2,2,,,,,,,,,,,,,,,,,0,630.4856790000013,630.9777465000006,630.9777465000006,630.4856790000013,None,630.9777465000006,630.4856790000013,,,,,,,,,,,,,Jocelyn_personal,001,2024_Feb_19_2145,nback-master,2021.1.4,60.05061065510308,
7,8,1,TO_081_TOOL81_BA.png,target,target,Tools,2-Back,7,0,7,0,,,,,0,3,3,3,,,,,,,,,,,,,,,,,0,632.9820383000006,633.4763749000012,633.4763749000012,632.9820383000006,None,633.4763749000012,632.9820383000006,,,,,,,,,,,,,Jocelyn_personal,001,2024_Feb_19_2145,nback-master,2021.1.4,60.05061065510308,
7,8,1,TO_079_TOOL79_BA.png,target,target,Tools,2-Back,7,0,7,0,,,,,0,4,4,4,,,,,,,,,,,,,,,,,0,635.4807309999997,635.9750362000013,635.9750362000013,635.4807309999997,None,635.9750362000013,635.4807309999997,,,,,,,,,,,,,Jocelyn_personal,001,2024_Feb_19_2145,nback-master,2021.1.4,60.05061065510308,
7,8,1,TO_082_TOOL82_BA.png,nonlure,nontarget,Tools,2-Back,7,0,7,0,,,,,0,5,5,5,,,,,,,,,,,,,,,,,0,638.0876391999991,638.5903053000002,638.5903053000002,638.0876391999991,None,638.5903053000002,638.0876391999991,,,,,,,,,,,,,Jocelyn_personal,001,2024_Feb_19_2145,nback-master,2021.1.4,60.05061065510308,
7,8,1,TO_082_TOOL82_BA.png,lure,nontarget,Tools,2-Back,7,0,7,0,,,,,0,6,6,6,,,,,,,,,,,,,,,,,0,640.5958795000006,641.0887165999993,641.0887165999993,640.5958795000006,None,641.0887165999993,640.5958795000006,,,,,,,,,,,,,Jocelyn_personal,001,2024_Feb_19_2145,nback-master,2021.1.4,60.05061065510308,
7,8,1,TO_083_TOOL83_BA.png,nonlure,nontarget,Tools,2-Back,7,0,7,0,,,,,0,7,7,7,,,,,,,,,,,,,,,,,0,643.5208617999997,644.0201689999994,644.0201689999994,643.5208617999997,None,644.0201689999994,643.5208617999997,,,,,,,,,,,,,Jocelyn_personal,001,2024_Feb_19_2145,nback-master,2021.1.4,60.05061065510308,
7,8,1,TO_084_TOOL84_BA.png,nonlure,nontarget,Tools,2-Back,7,0,7,0,,,,,0,8,8,8,,,,,,,,,,,,,,,,,0,646.043482000001,646.5355802000013,646.5355802000013,646.043482000001,None,646.5355802000013,646.043482000001,,,,,,,,,,,,,Jocelyn_personal,001,2024_Feb_19_2145,nback-master,2021.1.4,60.05061065510308,
7,8,1,TO_084_TOOL84_BA.png,lure,nontarget,Tools,2-Back,7,0,7,0,,,,,0,9,9,9,,,,,,,,,,,,,,,,,0,648.5418414999986,649.0507730999998,649.0507730999998,648.5418414999986,None,649.0507730999998,648.5418414999986,,,,,,,,,,,,,Jocelyn_personal,001,2024_Feb_19_2145,nback-master,2021.1.4,60.05061065510308,
,,,,,,,,7,0,7,0,,,,,,,,,,,,,,,,,,,,,,,,,,,,,,,,,,,,,651.0502532999999,None,,,,,,,Jocelyn_personal,001,2024_Feb_19_2145,nback-master,2021.1.4,60.05061065510308,
,,,,,,,,,,,,,,,,,,,,,,,,,,,,,,,,,,,,,,,,,,,,,,,,,,666.057869100001,None,q,235.6912110000012,666.057869100001,None,Jocelyn_personal,001,2024_Feb_19_2145,nback-master,2021.1.4,60.05061065510308,
