Run,Block,Weight,Stimulus,TargetType,CorrectResponse,StimType,BlockType,block.thisRepN,block.thisTrialN,block.thisN,block.thisIndex,trials.thisRepN,trials.thisTrialN,trials.thisN,trials.thisIndex,trials_2.thisRepN,trials_2.thisTrialN,trials_2.thisN,trials_2.thisIndex,trigger_txt.started,trigger_txt.stopped,trigger_resp.keys,trigger_resp.rt,trigger_resp.started,trigger_resp.stopped,instr_txt.started,instr_txt.stopped,prepared_resp.keys,prepared_resp.rt,prepared_resp.started,prepared_resp.stopped,prep_instr.started,prep_instr.stopped,target.started,target.stopped,corr_var,stim_trial_fixation.started,stim_trial_fixation.stopped,image.started,image.stopped,key_resp.keys,key_resp.rt,key_resp.started,key_resp.stopped,prep_instr_2.started,prep_instr_2.stopped,target_2.started,target_2.stopped,rest_txt.started,rest_txt.stopped,participant,session,date,expName,psychopyVersion,frameRate,
,,,,,,,,,,,,,,,,,,,,22.436934300003486,None,s,0.936187899998913,22.436934300003486,None,,,,,,,,,,,,,,,,,,,,,,,,,,Jocelyn_personal,001,2024_Feb_19_2112,nback-master,2021.1.4,59.97638130099012,
,,,,,,,,,,,,,,,,,,,,,,,,,,23.390923900002235,None,1,0.6949801999980991,23.390923900002235,None,,,,,,,,,,,,,,,,,,,,Jocelyn_personal,001,2024_Feb_19_2112,nback-master,2021.1.4,59.97638130099012,
1,1,1,BP_002_BP10_BA.png,nonlure,nontarget,Body,2-Back,0,0,0,0,0,0,0,0,,,,,,,,,,,,,,,,,24.32089530000303,None,24.32089530000303,None,1,27.133617300001788,27.637838100003137,27.637838100003137,None,2,0.7732595999987097,27.637838100003137,None,,,,,,,Jocelyn_personal,001,2024_Feb_19_2112,nback-master,2021.1.4,59.97638130099012,
1,1,1,BP_001_BP1_BA.png,nonlure,nontarget,Body,2-Back,0,0,0,0,0,1,1,1,,,,,,,,,,,,,,,,,,,,,1,29.66538600000058,30.16971960000228,30.16971960000228,29.66538600000058,2,0.5871427999991283,30.16971960000228,29.66538600000058,,,,,,,Jocelyn_personal,001,2024_Feb_19_2112,nback-master,2021.1.4,59.97638130099012,
1,1,1,BP_006_BP2_BA.png,nonlure,nontarget,Body,2-Back,0,0,0,0,0,2,2,2,,,,,,,,,,,,,,,,,,,,,1,32.289169600000605,32.78536530000201,32.78536530000201,32.289169600000605,2,0.7424922999998671,32.78536530000201,32.289169600000605,,,,,,,Jocelyn_personal,001,2024_Feb_19_2112,nback-master,2021.1.4,59.97638130099012,
1,1,1,BP_001_BP1_BA.png,target,target,Body,2-Back,0,0,0,0,0,3,3,3,,,,,,,,,,,,,,,,,,,,,1,34.793655800000124,35.300991600001,35.300991600001,34.793655800000124,1,0.5147783000029449,35.300991600001,34.793655800000124,,,,,,,Jocelyn_personal,001,2024_Feb_19_2112,nback-master,2021.1.4,59.97638130099012,
1,1,1,BP_005_BP19_BA.png,nonlure,nontarget,Body,2-Back,0,0,0,0,0,4,4,4,,,,,,,,,,,,,,,,,,,,,1,37.32611620000171,37.83240070000102,37.83240070000102,37.32611620000171,2,0.48738090000188095,37.83240070000102,37.32611620000171,,,,,,,Jocelyn_personal,001,2024_Feb_19_2112,nback-master,2021.1.4,59.97638130099012,
1,1,1,BP_003_BP16_BA.png,nonlure,nontarget,Body,2-Back,0,0,0,0,0,5,5,5,,,,,,,,,,,,,,,,,,,,,1,39.88718810000137,40.38098870000249,40.38098870000249,39.88718810000137,2,0.4857335000015155,40.38098870000249,39.88718810000137,,,,,,,Jocelyn_personal,001,2024_Feb_19_2112,nback-master,2021.1.4,59.97638130099012,
1,1,1,BP_006_BP2_BA.png,lure,nontarget,Body,2-Back,0,0,0,0,0,6,6,6,,,,,,,,,,,,,,,,,,,,,1,42.385857100001886,42.8797607000015,42.8797607000015,42.385857100001886,2,0.3985179000010248,42.8797607000015,42.385857100001886,,,,,,,Jocelyn_personal,001,2024_Feb_19_2112,nback-master,2021.1.4,59.97638130099012,
1,1,1,BP_004_BP18_BA.png,nonlure,nontarget,Body,2-Back,0,0,0,0,0,7,7,7,,,,,,,,,,,,,,,,,,,,,1,44.90085420000105,45.39483940000355,45.39483940000355,44.90085420000105,2,0.5767742999996699,45.39483940000355,44.90085420000105,,,,,,,Jocelyn_personal,001,2024_Feb_19_2112,nback-master,2021.1.4,59.97638130099012,
1,1,1,BP_005_BP19_BA.png,lure,nontarget,Body,2-Back,0,0,0,0,0,8,8,8,,,,,,,,,,,,,,,,,,,,,1,47.403734300001815,47.91003710000223,47.91003710000223,47.403734300001815,2,0.6007811000017682,47.91003710000223,47.403734300001815,,,,,,,Jocelyn_personal,001,2024_Feb_19_2112,nback-master,2021.1.4,59.97638130099012,
1,1,1,BP_004_BP18_BA.png,target,target,Body,2-Back,0,0,0,0,0,9,9,9,,,,,,,,,,,,,,,,,,,,,1,49.91289330000291,50.40861930000028,50.40861930000028,49.91289330000291,1,0.4338372000020172,50.40861930000028,49.91289330000291,,,,,,,Jocelyn_personal,001,2024_Feb_19_2112,nback-master,2021.1.4,59.97638130099012,
1,2,1,FC_005_M3.png,nonlure,nontarget,Face,0-Back,0,0,0,0,,,,,0,0,0,0,,,,,,,,,,,,,,,,,1,55.6652759000026,56.1721400000024,56.1721400000024,None,2,0.5719844999985071,56.1721400000024,None,52.577017100000376,None,52.577017100000376,None,,,Jocelyn_personal,001,2024_Feb_19_2112,nback-master,2021.1.4,59.97638130099012,
1,2,1,FC_001_M1.png,target,target,Face,0-Back,0,0,0,0,,,,,0,1,1,1,,,,,,,,,,,,,,,,,0,58.19222940000327,58.68737990000227,58.68737990000227,58.19222940000327,2,0.39879329999894253,58.68737990000227,58.19222940000327,,,,,,,Jocelyn_personal,001,2024_Feb_19_2112,nback-master,2021.1.4,59.97638130099012,
1,2,1,FC_003_M2.png,nonlure,nontarget,Face,0-Back,0,0,0,0,,,,,0,2,2,2,,,,,,,,,,,,,,,,,1,60.76500450000094,61.26939140000104,61.26939140000104,60.76500450000094,2,0.2917085999979463,61.26939140000104,60.76500450000094,,,,,,,Jocelyn_personal,001,2024_Feb_19_2112,nback-master,2021.1.4,59.97638130099012,
1,2,1,FC_004_F2.png,nonlure,nontarget,Face,0-Back,0,0,0,0,,,,,0,3,3,3,,,,,,,,,,,,,,,,,1,63.31573930000013,63.81798660000277,63.81798660000277,63.31573930000013,2,0.4356508999990183,63.81798660000277,63.31573930000013,,,,,,,Jocelyn_personal,001,2024_Feb_19_2112,nback-master,2021.1.4,59.97638130099012,
1,2,1,FC_004_F2.png,lure,nontarget,Face,0-Back,0,0,0,0,,,,,0,4,4,4,,,,,,,,,,,,,,,,,1,65.8436072000004,66.34983400000056,66.34983400000056,65.8436072000004,2,0.3618468999993638,66.34983400000056,65.8436072000004,,,,,,,Jocelyn_personal,001,2024_Feb_19_2112,nback-master,2021.1.4,59.97638130099012,
1,2,1,FC_001_M1.png,target,target,Face,0-Back,0,0,0,0,,,,,0,5,5,5,,,,,,,,,,,,,,,,,1,68.36819100000139,68.86473810000098,68.86473810000098,68.36819100000139,1,0.5576060999992478,68.86473810000098,68.36819100000139,,,,,,,Jocelyn_personal,001,2024_Feb_19_2112,nback-master,2021.1.4,59.97638130099012,
1,2,1,FC_006_F3.png,nonlure,nontarget,Face,0-Back,0,0,0,0,,,,,0,6,6,6,,,,,,,,,,,,,,,,,1,70.9094511000003,71.41365700000097,71.41365700000097,70.9094511000003,2,0.45413320000079693,71.41365700000097,70.9094511000003,,,,,,,Jocelyn_personal,001,2024_Feb_19_2112,nback-master,2021.1.4,59.97638130099012,
1,2,1,FC_006_F3.png,lure,nontarget,Face,0-Back,0,0,0,0,,,,,0,7,7,7,,,,,,,,,,,,,,,,,1,73.43736880000142,73.94546800000171,73.94546800000171,73.43736880000142,2,0.458522200002335,73.94546800000171,73.43736880000142,,,,,,,Jocelyn_personal,001,2024_Feb_19_2112,nback-master,2021.1.4,59.97638130099012,
1,2,1,FC_003_M2.png,lure,nontarget,Face,0-Back,0,0,0,0,,,,,0,8,8,8,,,,,,,,,,,,,,,,,1,75.9686548000027,76.46087690000059,76.46087690000059,75.9686548000027,2,0.4283346000011079,76.46087690000059,75.9686548000027,,,,,,,Jocelyn_personal,001,2024_Feb_19_2112,nback-master,2021.1.4,59.97638130099012,
1,2,1,FC_002_F1.png,nonlure,nontarget,Face,0-Back,0,0,0,0,,,,,0,9,9,9,,,,,,,,,,,,,,,,,1,78.56585550000091,79.0593454000009,79.0593454000009,78.56585550000091,2,0.4507653000000573,79.0593454000009,78.56585550000091,,,,,,,Jocelyn_personal,001,2024_Feb_19_2112,nback-master,2021.1.4,59.97638130099012,
,,,,,,,,0,0,0,0,,,,,,,,,,,,,,,,,,,,,,,,,,,,,,,,,,,,,,81.05850590000045,None,Jocelyn_personal,001,2024_Feb_19_2112,nback-master,2021.1.4,59.97638130099012,
1,3,1,TO_001_TOOL1_BA.png,nonlure,nontarget,Tools,2-Back,1,0,1,0,0,0,0,0,,,,,,,,,,,,,,,,,96.21173310000086,None,96.21173310000086,None,0,99.02014039999995,99.51455930000157,99.51455930000157,None,None,,99.51455930000157,None,,,,,,,Jocelyn_personal,001,2024_Feb_19_2112,nback-master,2021.1.4,59.97638130099012,
1,3,1,TO_002_TOOL2_BA.png,nonlure,nontarget,Tools,2-Back,1,0,1,0,0,1,1,1,,,,,,,,,,,,,,,,,,,,,0,101.60315520000222,102.096287700002,102.096287700002,101.60315520000222,None,,102.096287700002,101.60315520000222,,,,,,,Jocelyn_personal,001,2024_Feb_19_2112,nback-master,2021.1.4,59.97638130099012,
1,3,1,TO_004_TOOL4_BA.png,nonlure,nontarget,Tools,2-Back,1,0,1,0,0,2,2,2,,,,,,,,,,,,,,,,,,,,,0,104.78637350000281,105.29480580000018,105.29480580000018,104.78637350000281,None,,105.29480580000018,104.78637350000281,,,,,,,Jocelyn_personal,001,2024_Feb_19_2112,nback-master,2021.1.4,59.97638130099012,
1,3,1,TO_002_TOOL2_BA.png,target,target,Tools,2-Back,1,0,1,0,0,3,3,3,,,,,,,,,,,,,,,,,,,,,0,107.30033540000295,107.79314599999998,107.79314599999998,107.30033540000295,None,,107.79314599999998,107.30033540000295,,,,,,,Jocelyn_personal,001,2024_Feb_19_2112,nback-master,2021.1.4,59.97638130099012,
1,3,1,TO_001_TOOL1_BA.png,lure,nontarget,Tools,2-Back,1,0,1,0,0,4,4,4,,,,,,,,,,,,,,,,,,,,,0,109.7964776000008,110.29184280000118,110.29184280000118,109.7964776000008,None,,110.29184280000118,109.7964776000008,,,,,,,Jocelyn_personal,001,2024_Feb_19_2112,nback-master,2021.1.4,59.97638130099012,
1,3,1,TO_004_TOOL4_BA.png,lure,nontarget,Tools,2-Back,1,0,1,0,0,5,5,5,,,,,,,,,,,,,,,,,,,,,0,112.29940260000149,112.80688420000297,112.80688420000297,112.29940260000149,None,,112.80688420000297,112.29940260000149,,,,,,,Jocelyn_personal,001,2024_Feb_19_2112,nback-master,2021.1.4,59.97638130099012,
1,3,1,TO_006_TOOL6_BA.png,nonlure,nontarget,Tools,2-Back,1,0,1,0,0,6,6,6,,,,,,,,,,,,,,,,,,,,,0,114.83099870000297,115.33902070000113,115.33902070000113,114.83099870000297,None,,115.33902070000113,114.83099870000297,,,,,,,Jocelyn_personal,001,2024_Feb_19_2112,nback-master,2021.1.4,59.97638130099012,
1,3,1,TO_005_TOOL5_BA.png,nonlure,nontarget,Tools,2-Back,1,0,1,0,0,7,7,7,,,,,,,,,,,,,,,,,,,,,0,117.39673250000124,117.90435050000087,117.90435050000087,117.39673250000124,None,,117.90435050000087,117.39673250000124,,,,,,,Jocelyn_personal,001,2024_Feb_19_2112,nback-master,2021.1.4,59.97638130099012,
1,3,1,TO_006_TOOL6_BA.png,target,target,Tools,2-Back,1,0,1,0,0,8,8,8,,,,,,,,,,,,,,,,,,,,,0,119.90861550000045,120.40286980000019,120.40286980000019,119.90861550000045,None,,120.40286980000019,119.90861550000045,,,,,,,Jocelyn_personal,001,2024_Feb_19_2112,nback-master,2021.1.4,59.97638130099012,
1,3,1,TO_003_TOOL3_BA.png,nonlure,nontarget,Tools,2-Back,1,0,1,0,0,9,9,9,,,,,,,,,,,,,,,,,,,,,0,122.44267110000146,122.93447350000133,122.93447350000133,122.44267110000146,None,,122.93447350000133,122.44267110000146,,,,,,,Jocelyn_personal,001,2024_Feb_19_2112,nback-master,2021.1.4,59.97638130099012,
1,4,1,BP_007_BP20_BA.png,target,target,Body,0-Back,1,0,1,0,,,,,0,0,0,0,,,,,,,,,,,,,,,,,0,127.75951540000096,128.26516000000265,128.26516000000265,None,None,,128.26516000000265,None,124.97750350000206,None,124.97750350000206,None,,,Jocelyn_personal,001,2024_Feb_19_2112,nback-master,2021.1.4,59.97638130099012,
1,4,1,BP_011_BP4_BA.png,nonlure,nontarget,Body,0-Back,1,0,1,0,,,,,0,1,1,1,,,,,,,,,,,,,,,,,0,130.33347360000334,130.8304222000006,130.8304222000006,130.33347360000334,None,,130.8304222000006,130.33347360000334,,,,,,,Jocelyn_personal,001,2024_Feb_19_2112,nback-master,2021.1.4,59.97638130099012,
1,4,1,BP_010_BP3_BA.png,nonlure,nontarget,Body,0-Back,1,0,1,0,,,,,0,2,2,2,,,,,,,,,,,,,,,,,0,132.8703968000009,133.37875650000205,133.37875650000205,132.8703968000009,None,,133.37875650000205,132.8703968000009,,,,,,,Jocelyn_personal,001,2024_Feb_19_2112,nback-master,2021.1.4,59.97638130099012,
1,4,1,BP_008_BP21_BA.png,nonlure,nontarget,Body,0-Back,1,0,1,0,,,,,0,3,3,3,,,,,,,,,,,,,,,,,0,135.39910300000338,135.89419140000246,135.89419140000246,135.39910300000338,None,,135.89419140000246,135.39910300000338,,,,,,,Jocelyn_personal,001,2024_Feb_19_2112,nback-master,2021.1.4,59.97638130099012,
1,4,1,BP_011_BP4_BA.png,lure,nontarget,Body,0-Back,1,0,1,0,,,,,0,4,4,4,,,,,,,,,,,,,,,,,0,137.90371980000054,138.4094268000008,138.4094268000008,137.90371980000054,None,,138.4094268000008,137.90371980000054,,,,,,,Jocelyn_personal,001,2024_Feb_19_2112,nback-master,2021.1.4,59.97638130099012,
1,4,1,BP_009_BP22_BA.png,nonlure,nontarget,Body,0-Back,1,0,1,0,,,,,0,5,5,5,,,,,,,,,,,,,,,,,0,140.443725000001,140.94136100000105,140.94136100000105,140.443725000001,None,,140.94136100000105,140.443725000001,,,,,,,Jocelyn_personal,001,2024_Feb_19_2112,nback-master,2021.1.4,59.97638130099012,
1,4,1,BP_009_BP22_BA.png,lure,nontarget,Body,0-Back,1,0,1,0,,,,,0,6,6,6,,,,,,,,,,,,,,,,,0,142.9440287000034,143.4399764000009,143.4399764000009,142.9440287000034,None,,143.4399764000009,142.9440287000034,,,,,,,Jocelyn_personal,001,2024_Feb_19_2112,nback-master,2021.1.4,59.97638130099012,
1,4,1,BP_008_BP21_BA.png,lure,nontarget,Body,0-Back,1,0,1,0,,,,,0,7,7,7,,,,,,,,,,,,,,,,,0,145.4434564000003,145.93863610000335,145.93863610000335,145.4434564000003,None,,145.93863610000335,145.4434564000003,,,,,,,Jocelyn_personal,001,2024_Feb_19_2112,nback-master,2021.1.4,59.97638130099012,
1,4,1,BP_007_BP20_BA.png,target,target,Body,0-Back,1,0,1,0,,,,,0,8,8,8,,,,,,,,,,,,,,,,,0,147.94119520000095,148.43704380000054,148.43704380000054,147.94119520000095,None,,148.43704380000054,147.94119520000095,,,,,,,Jocelyn_personal,001,2024_Feb_19_2112,nback-master,2021.1.4,59.97638130099012,
1,4,1,BP_012_BP5_BA.png,nonlure,nontarget,Body,0-Back,1,0,1,0,,,,,0,9,9,9,,,,,,,,,,,,,,,,,0,150.52193370000168,151.01916390000042,151.01916390000042,150.52193370000168,None,,151.01916390000042,150.52193370000168,,,,,,,Jocelyn_personal,001,2024_Feb_19_2112,nback-master,2021.1.4,59.97638130099012,
,,,,,,,,1,0,1,0,,,,,,,,,,,,,,,,,,,,,,,,,,,,,,,,,,,,,,153.01778090000153,None,Jocelyn_personal,001,2024_Feb_19_2112,nback-master,2021.1.4,59.97638130099012,
1,5,1,PL_003_92016.png,nonlure,nontarget,Place,0-Back,2,0,2,0,0,0,0,0,,,,,,,,,,,,,,,,,168.12655190000078,None,168.12655190000078,None,0,170.93150720000267,171.42428690000088,171.42428690000088,None,None,,171.42428690000088,None,,,,,,,Jocelyn_personal,001,2024_Feb_19_2112,nback-master,2021.1.4,59.97638130099012,
1,5,1,PL_003_92016.png,lure,nontarget,Place,0-Back,2,0,2,0,0,1,1,1,,,,,,,,,,,,,,,,,,,,,0,173.4355964000024,173.9395011000015,173.9395011000015,173.4355964000024,None,,173.9395011000015,173.4355964000024,,,,,,,Jocelyn_personal,001,2024_Feb_19_2112,nback-master,2021.1.4,59.97638130099012,
1,5,1,PL_006_92025.png,nonlure,nontarget,Place,0-Back,2,0,2,0,0,2,2,2,,,,,,,,,,,,,,,,,,,,,0,176.0614475000002,176.55484250000154,176.55484250000154,176.0614475000002,None,,176.55484250000154,176.0614475000002,,,,,,,Jocelyn_personal,001,2024_Feb_19_2112,nback-master,2021.1.4,59.97638130099012,
1,5,1,PL_001_92012.png,target,target,Place,0-Back,2,0,2,0,0,3,3,3,,,,,,,,,,,,,,,,,,,,,0,178.56586180000158,179.06976190000205,179.06976190000205,178.56586180000158,None,,179.06976190000205,178.56586180000158,,,,,,,Jocelyn_personal,001,2024_Feb_19_2112,nback-master,2021.1.4,59.97638130099012,
1,5,1,PL_004_92023.png,nonlure,nontarget,Place,0-Back,2,0,2,0,0,4,4,4,,,,,,,,,,,,,,,,,,,,,0,181.2967512000032,181.80197280000357,181.80197280000357,181.2967512000032,None,,181.80197280000357,181.2967512000032,,,,,,,Jocelyn_personal,001,2024_Feb_19_2112,nback-master,2021.1.4,59.97638130099012,
