Run,Block,Weight,Stimulus,TargetType,CorrectResponse,StimType,BlockType,block.thisRepN,block.thisTrialN,block.thisN,block.thisIndex,trials.thisRepN,trials.thisTrialN,trials.thisN,trials.thisIndex,trials_2.thisRepN,trials_2.thisTrialN,trials_2.thisN,trials_2.thisIndex,trigger_txt.started,trigger_txt.stopped,trigger_resp.keys,trigger_resp.rt,trigger_resp.started,trigger_resp.stopped,instr_txt.started,instr_txt.stopped,prepared_resp.keys,prepared_resp.rt,prepared_resp.started,prepared_resp.stopped,prep_instr.started,prep_instr.stopped,target.started,target.stopped,corr_var,image.started,image.stopped,key_resp.keys,key_resp.rt,key_resp.started,key_resp.stopped,trial_fixation.started,trial_fixation.stopped,(iti duration),(stim duration),(rest duration),prep_instr_2.started,prep_instr_2.stopped,target_2.started,target_2.stopped,rest_txt.started,rest_txt.stopped,participant,session,date,expName,psychopyVersion,frameRate
,,,,,,,,,,,,,,,,,,,,67.5454969,None,s,0.4569785,67.5454969,None,,,,,,,,,,,,,,,,,,,,,,,,,,,,,Jocelyn_personal,1,2024_Feb_19_1531,nback-master,2021.1.4,60.0308919
,,,,,,,,,,,,,,,,,,,,,,,,,,68.0279778,None,1,0.6029408,68.0279778,None,,,,,,,,,,,,,,,,,,,,,,,Jocelyn_personal,1,2024_Feb_19_1531,nback-master,2021.1.4,60.0308919
5,1,1,PL_055_TUFTS01BW.png,nonlure,nontarget,Place,2-Back,0,0,0,0,0,0,0,0,,,,,,,,,,,,,,,,,68.8134451,None,68.8134451,None,1,71.6518749,None,2,0.6773845,71.6518749,None,73.6585827,None,0.6328109,2.0067078,18.1895065,,,,,,,Jocelyn_personal,1,2024_Feb_19_1531,nback-master,2021.1.4,60.0308919
5,1,1,PL_051_SCENE08.png,nonlure,nontarget,Place,2-Back,0,0,0,0,0,1,1,1,,,,,,,,,,,,,,,,,,,,,1,74.2913936,None,2,0.6053025,74.2913936,None,76.2893079,None,0.5078534,1.9979143,,,,,,,,Jocelyn_personal,1,2024_Feb_19_1531,nback-master,2021.1.4,60.0308919
5,1,1,PL_055_TUFTS01BW.png,target,target,Place,2-Back,0,0,0,0,0,2,2,2,,,,,,,,,,,,,,,,,,,,,1,76.7971613,None,1,0.4366097,76.7971613,None,78.804982,None,0.5244023,2.0078207,,,,,,,,Jocelyn_personal,1,2024_Feb_19_1531,nback-master,2021.1.4,60.0308919
5,1,1,PL_056_TUFTS02BW.png,nonlure,nontarget,Place,2-Back,0,0,0,0,0,3,3,3,,,,,,,,,,,,,,,,,,,,,1,79.3293843,None,2,0.4713424,79.3293843,None,81.337061,None,0.5086714,2.0076767,,,,,,,,Jocelyn_personal,1,2024_Feb_19_1531,nback-master,2021.1.4,60.0308919
5,1,1,PL_051_SCENE08.png,lure,nontarget,Place,2-Back,0,0,0,0,0,4,4,4,,,,,,,,,,,,,,,,,,,,,1,81.8457324,None,2,0.5201505,81.8457324,None,83.8523369,None,0.5270455,2.0066045,,,,,,,,Jocelyn_personal,1,2024_Feb_19_1531,nback-master,2021.1.4,60.0308919
5,1,1,PL_052_SCENE11.png,nonlure,nontarget,Place,2-Back,0,0,0,0,0,5,5,5,,,,,,,,,,,,,,,,,,,,,1,84.3793824,None,2,0.7255886,84.3793824,None,86.3843394,None,0.5062949,2.004957,,,,,,,,Jocelyn_personal,1,2024_Feb_19_1531,nback-master,2021.1.4,60.0308919
5,1,1,PL_052_SCENE11.png,lure,nontarget,Place,2-Back,0,0,0,0,0,6,6,6,,,,,,,,,,,,,,,,,,,,,1,86.8906343,None,2,0.6527916,86.8906343,None,88.8828061,None,0.5255847,1.9921718,,,,,,,,Jocelyn_personal,1,2024_Feb_19_1531,nback-master,2021.1.4,60.0308919
5,1,1,PL_053_SCENE15.png,nonlure,nontarget,Place,2-Back,0,0,0,0,0,7,7,7,,,,,,,,,,,,,,,,,,,,,1,89.4083908,None,2,0.7167167,89.4083908,None,91.414823,None,0.5268338,2.0064322,,,,,,,,Jocelyn_personal,1,2024_Feb_19_1531,nback-master,2021.1.4,60.0308919
5,1,1,PL_054_SCENE19.png,nonlure,nontarget,Place,2-Back,0,0,0,0,0,8,8,8,,,,,,,,,,,,,,,,,,,,,1,91.9416568,None,2,0.5772276,91.9416568,None,93.9466536,None,0.5013376,2.0049968,,,,,,,,Jocelyn_personal,1,2024_Feb_19_1531,nback-master,2021.1.4,60.0308919
5,1,1,PL_053_SCENE15.png,target,target,Place,2-Back,0,0,0,0,0,9,9,9,,,,,,,,,,,,,,,,,,,,,1,94.4479912,None,1,1.2683738,94.4479912,None,None,None,#VALUE!,#VALUE!,,,,,,,,Jocelyn_personal,1,2024_Feb_19_1531,nback-master,2021.1.4,60.0308919
5,2,1,TO_050_TOOL50_BA.png,nonlure,nontarget,Tools,0-Back,0,0,0,0,,,,,0,0,0,0,,,,,,,,,,,,,,,,,1,99.4349884,None,2,0.6190717,99.4349884,None,101.442363,None,0.6194467,2.0073746,,96.581044,None,96.581044,None,,,Jocelyn_personal,1,2024_Feb_19_1531,nback-master,2021.1.4,60.0308919
5,2,1,TO_054_TOOL54_BA.png,nonlure,nontarget,Tools,0-Back,0,0,0,0,,,,,0,1,1,1,,,,,,,,,,,,,,,,,1,102.0618097,None,2,0.4226367,102.0618097,None,104.0576162,None,0.5017397,1.9958065,,,,,,,,Jocelyn_personal,1,2024_Feb_19_1531,nback-master,2021.1.4,60.0308919
5,2,1,TO_050_TOOL50_BA.png,lure,nontarget,Tools,0-Back,0,0,0,0,,,,,0,2,2,2,,,,,,,,,,,,,,,,,1,104.5593559,None,2,0.5427542,104.5593559,None,106.5561409,None,0.5019772,1.996785,,,,,,,,Jocelyn_personal,1,2024_Feb_19_1531,nback-master,2021.1.4,60.0308919
5,2,1,TO_049_TOOL49_BA.png,target,target,Tools,0-Back,0,0,0,0,,,,,0,3,3,3,,,,,,,,,,,,,,,,,0,107.0581181,None,2,0.5870132,107.0581181,None,109.0547392,None,0.5173269,1.9966211,,,,,,,,Jocelyn_personal,1,2024_Feb_19_1531,nback-master,2021.1.4,60.0308919
5,2,1,TO_052_TOOL52_BA.png,nonlure,nontarget,Tools,0-Back,0,0,0,0,,,,,0,4,4,4,,,,,,,,,,,,,,,,,1,109.5720661,None,2,0.6346384,109.5720661,None,111.5699609,None,0.5176228,1.9978948,,,,,,,,Jocelyn_personal,1,2024_Feb_19_1531,nback-master,2021.1.4,60.0308919
5,2,1,TO_053_TOOL53_BA.png,nonlure,nontarget,Tools,0-Back,0,0,0,0,,,,,0,5,5,5,,,,,,,,,,,,,,,,,1,112.0875837,None,2,0.5235552,112.0875837,None,114.0852548,None,0.5018406,1.9976711,,,,,,,,Jocelyn_personal,1,2024_Feb_19_1531,nback-master,2021.1.4,60.0308919
5,2,1,TO_052_TOOL52_BA.png,lure,nontarget,Tools,0-Back,0,0,0,0,,,,,0,6,6,6,,,,,,,,,,,,,,,,,1,114.5870954,None,2,0.4275906,114.5870954,None,116.5838414,None,0.5020752,1.996746,,,,,,,,Jocelyn_personal,1,2024_Feb_19_1531,nback-master,2021.1.4,60.0308919
5,2,1,TO_054_TOOL54_BA.png,lure,nontarget,Tools,0-Back,0,0,0,0,,,,,0,7,7,7,,,,,,,,,,,,,,,,,1,117.0859166,None,2,0.3963307,117.0859166,None,119.0824666,None,0.5019514,1.99655,,,,,,,,Jocelyn_personal,1,2024_Feb_19_1531,nback-master,2021.1.4,60.0308919
5,2,1,TO_049_TOOL49_BA.png,target,target,Tools,0-Back,0,0,0,0,,,,,0,8,8,8,,,,,,,,,,,,,,,,,1,119.584418,None,1,0.4545479,119.584418,None,121.5811017,None,0.6173997,1.9966837,,,,,,,,Jocelyn_personal,1,2024_Feb_19_1531,nback-master,2021.1.4,60.0308919
5,2,1,TO_051_TOOL51_BA.png,nonlure,nontarget,Tools,0-Back,0,0,0,0,,,,,0,9,9,9,,,,,,,,,,,,,,,,,1,122.1985014,None,2,0.5896836,122.1985014,None,None,None,#VALUE!,#VALUE!,,,,,,,,Jocelyn_personal,1,2024_Feb_19_1531,nback-master,2021.1.4,60.0308919
,,,,,,,,0,0,0,0,,,,,,,,,,,,,,,,,,,,,,,,,,,,,,,,,,142.3857328,0,,,,,,124.1962263,None,Jocelyn_personal,1,2024_Feb_19_1531,nback-master,2021.1.4,60.0308919
5,3,1,PL_059_TUFTS08BW.png,nonlure,nontarget,Place,0-Back,1,0,1,0,0,0,0,0,,,,,,,,,,,,,,,,,139.5450954,None,139.5450954,None,0,142.3857328,None,None,,142.3857328,None,144.3850743,None,0.5064585,1.9993415,,,,,,,,Jocelyn_personal,1,2024_Feb_19_1531,nback-master,2021.1.4,60.0308919
5,3,1,PL_057_TUFTS06BW.png,target,target,Place,0-Back,1,0,1,0,0,1,1,1,,,,,,,,,,,,,,,,,,,,,0,144.8915328,None,None,,144.8915328,None,146.8835692,None,0.5041901,1.9920364,,,,,,,,Jocelyn_personal,1,2024_Feb_19_1531,nback-master,2021.1.4,60.0308919
5,3,1,PL_059_TUFTS08BW.png,lure,nontarget,Place,0-Back,1,0,1,0,0,2,2,2,,,,,,,,,,,,,,,,,,,,,0,147.3877593,None,None,,147.3877593,None,149.3822402,None,0.5379846,1.9944809,,,,,,,,Jocelyn_personal,1,2024_Feb_19_1531,nback-master,2021.1.4,60.0308919
5,3,1,PL_061_TUFTS11BW.png,nonlure,nontarget,Place,0-Back,1,0,1,0,0,3,3,3,,,,,,,,,,,,,,,,,,,,,0,149.9202248,None,None,,149.9202248,None,151.9142,None,0.5229808,1.9939752,,,,,,,,Jocelyn_personal,1,2024_Feb_19_1531,nback-master,2021.1.4,60.0308919
5,3,1,PL_062_TUFTS17BW.png,nonlure,nontarget,Place,0-Back,1,0,1,0,0,4,4,4,,,,,,,,,,,,,,,,,,,,,0,152.4371808,None,None,,152.4371808,None,154.4461687,None,0.5069623,2.0089879,,,,,,,,Jocelyn_personal,1,2024_Feb_19_1531,nback-master,2021.1.4,60.0308919
5,3,1,PL_061_TUFTS11BW.png,lure,nontarget,Place,0-Back,1,0,1,0,0,5,5,5,,,,,,,,,,,,,,,,,,,,,0,154.953131,None,None,,154.953131,None,156.9614658,None,0.5242545,2.0083348,,,,,,,,Jocelyn_personal,1,2024_Feb_19_1531,nback-master,2021.1.4,60.0308919
5,3,1,PL_060_TUFTS10BW.png,nonlure,nontarget,Place,0-Back,1,0,1,0,0,6,6,6,,,,,,,,,,,,,,,,,,,,,0,157.4857203,None,None,,157.4857203,None,159.4932937,None,0.5219884,2.0075734,,,,,,,,Jocelyn_personal,1,2024_Feb_19_1531,nback-master,2021.1.4,60.0308919
5,3,1,PL_058_TUFTS07BW.png,nonlure,nontarget,Place,0-Back,1,0,1,0,0,7,7,7,,,,,,,,,,,,,,,,,,,,,0,160.0152821,None,None,,160.0152821,None,162.0085772,None,0.5058293,1.9932951,,,,,,,,Jocelyn_personal,1,2024_Feb_19_1531,nback-master,2021.1.4,60.0308919
5,3,1,PL_062_TUFTS17BW.png,lure,nontarget,Place,0-Back,1,0,1,0,0,8,8,8,,,,,,,,,,,,,,,,,,,,,0,162.5144065,None,None,,162.5144065,None,164.5071586,None,0.5078084,1.9927521,,,,,,,,Jocelyn_personal,1,2024_Feb_19_1531,nback-master,2021.1.4,60.0308919
5,3,1,PL_057_TUFTS06BW.png,target,target,Place,0-Back,1,0,1,0,0,9,9,9,,,,,,,,,,,,,,,,,,,,,0,165.014967,None,None,,165.014967,None,None,None,#VALUE!,#VALUE!,,,,,,,,Jocelyn_personal,1,2024_Feb_19_1531,nback-master,2021.1.4,60.0308919
5,4,1,BP_054_MRBHS_BA.png,nonlure,nontarget,Body,2-Back,1,0,1,0,,,,,0,0,0,0,,,,,,,,,,,,,,,,,0,169.8664973,None,None,,169.8664973,None,171.8704527,None,0.5277163,2.0039554,,167.0863119,None,167.0863119,None,,,Jocelyn_personal,1,2024_Feb_19_1531,nback-master,2021.1.4,60.0308919
5,4,1,BP_053_MRBHI_BA.png,nonlure,nontarget,Body,2-Back,1,0,1,0,,,,,0,1,1,1,,,,,,,,,,,,,,,,,0,172.398169,None,None,,172.398169,None,174.4016287,None,0.9360599,2.0034597,,,,,,,,Jocelyn_personal,1,2024_Feb_19_1531,nback-master,2021.1.4,60.0308919
5,4,1,BP_051_MRBFI_BA.png,nonlure,nontarget,Body,2-Back,1,0,1,0,,,,,0,2,2,2,,,,,,,,,,,,,,,,,0,175.3376886,None,None,,175.3376886,None,177.3333742,None,0.5321177,1.9956856,,,,,,,,Jocelyn_personal,1,2024_Feb_19_1531,nback-master,2021.1.4,60.0308919
5,4,1,BP_050_MRBAS_BA.png,nonlure,nontarget,Body,2-Back,1,0,1,0,,,,,0,3,3,3,,,,,,,,,,,,,,,,,0,177.8654919,None,None,,177.8654919,None,179.8652043,None,0.5097905,1.9997124,,,,,,,,Jocelyn_personal,1,2024_Feb_19_1531,nback-master,2021.1.4,60.0308919
5,4,1,BP_054_MRBHS_BA.png,lure,nontarget,Body,2-Back,1,0,1,0,,,,,0,4,4,4,,,,,,,,,,,,,,,,,0,180.3749948,None,None,,180.3749948,None,182.3805375,None,0.5092421,2.0055427,,,,,,,,Jocelyn_personal,1,2024_Feb_19_1531,nback-master,2021.1.4,60.0308919
5,4,1,BP_050_MRBAS_BA.png,target,target,Body,2-Back,1,0,1,0,,,,,0,5,5,5,,,,,,,,,,,,,,,,,0,182.8897796,None,None,,182.8897796,None,184.8957348,None,0.5073567,2.0059552,,,,,,,,Jocelyn_personal,1,2024_Feb_19_1531,nback-master,2021.1.4,60.0308919
5,4,1,BP_051_MRBFI_BA.png,lure,nontarget,Body,2-Back,1,0,1,0,,,,,0,6,6,6,,,,,,,,,,,,,,,,,0,185.4030915,None,None,,185.4030915,None,187.4110755,None,0.5281628,2.007984,,,,,,,,Jocelyn_personal,1,2024_Feb_19_1531,nback-master,2021.1.4,60.0308919
5,4,1,BP_055_MRCHI_BA.png,nonlure,nontarget,Body,2-Back,1,0,1,0,,,,,0,7,7,7,,,,,,,,,,,,,,,,,0,187.9392383,None,None,,187.9392383,None,189.9427548,None,0.5250494,2.0035165,,,,,,,,Jocelyn_personal,1,2024_Feb_19_1531,nback-master,2021.1.4,60.0308919
5,4,1,BP_052_MRBFS_BA.png,nonlure,nontarget,Body,2-Back,1,0,1,0,,,,,0,8,8,8,,,,,,,,,,,,,,,,,0,190.4678042,None,None,,190.4678042,None,192.4747412,None,0.5065126,2.006937,,,,,,,,Jocelyn_personal,1,2024_Feb_19_1531,nback-master,2021.1.4,60.0308919
5,4,1,BP_055_MRCHI_BA.png,target,target,Body,2-Back,1,0,1,0,,,,,0,9,9,9,,,,,,,,,,,,,,,,,0,192.9812538,None,None,,192.9812538,None,None,None,#VALUE!,#VALUE!,,,,,,,,Jocelyn_personal,1,2024_Feb_19_1531,nback-master,2021.1.4,60.0308919
,,,,,,,,1,0,1,0,,,,,,,,,,,,,,,,,,,,,,,,,,,,,,,,,,212.9564351,0,,,,,,194.9899865,None,Jocelyn_personal,1,2024_Feb_19_1531,nback-master,2021.1.4,60.0308919
5,5,1,FC_049_M25.png,target,target,Face,0-Back,2,0,2,0,0,0,0,0,,,,,,,,,,,,,,,,,210.1580671,None,210.1580671,None,0,212.9564351,None,None,,212.9564351,None,214.9620774,None,0.5372884,2.0056423,,,,,,,,Jocelyn_personal,1,2024_Feb_19_1531,nback-master,2021.1.4,60.0308919
5,5,1,FC_051_M26.png,nonlure,nontarget,Face,0-Back,2,0,2,0,0,1,1,1,,,,,,,,,,,,,,,,,,,,,0,215.4993658,None,None,,215.4993658,None,217.4939707,None,0.5473194,1.9946049,,,,,,,,Jocelyn_personal,1,2024_Feb_19_1531,nback-master,2021.1.4,60.0308919
5,5,1,FC_054_F27.png,nonlure,nontarget,Face,0-Back,2,0,2,0,0,2,2,2,,,,,,,,,,,,,,,,,,,,,0,218.0412901,None,None,,218.0412901,None,220.0425095,None,0.5179518,2.0012194,,,,,,,,Jocelyn_personal,1,2024_Feb_19_1531,nback-master,2021.1.4,60.0308919
5,5,1,FC_051_M26.png,lure,nontarget,Face,0-Back,2,0,2,0,0,3,3,3,,,,,,,,,,,,,,,,,,,,,0,220.5604613,None,None,,220.5604613,None,222.5578564,None,0.5410671,1.9973951,,,,,,,,Jocelyn_personal,1,2024_Feb_19_1531,nback-master,2021.1.4,60.0308919
5,5,1,FC_050_F25.png,nonlure,nontarget,Face,0-Back,2,0,2,0,0,4,4,4,,,,,,,,,,,,,,,,,,,,,0,223.0989235,None,None,,223.0989235,None,225.1063452,None,0.5427315,2.0074217,,,,,,,,Jocelyn_personal,1,2024_Feb_19_1531,nback-master,2021.1.4,60.0308919
5,5,1,FC_053_M27.png,nonlure,nontarget,Face,0-Back,2,0,2,0,0,5,5,5,,,,,,,,,,,,,,,,,,,,,0,225.6490767,None,None,,225.6490767,None,227.6551851,None,0.5204709,2.0061084,,,,,,,,Jocelyn_personal,1,2024_Feb_19_1531,nback-master,2021.1.4,60.0308919
5,5,1,FC_049_M25.png,target,target,Face,0-Back,2,0,2,0,0,6,6,6,,,,,,,,,,,,,,,,,,,,,0,228.175656,None,None,,228.175656,None,230.1702622,None,0.5267089,1.9946062,,,,,,,,Jocelyn_personal,1,2024_Feb_19_1531,nback-master,2021.1.4,60.0308919
5,5,1,FC_054_F27.png,lure,nontarget,Face,0-Back,2,0,2,0,0,7,7,7,,,,,,,,,,,,,,,,,,,,,0,230.6969711,None,None,,230.6969711,None,232.7021612,None,0.5426896,2.0051901,,,,,,,,Jocelyn_personal,1,2024_Feb_19_1531,nback-master,2021.1.4,60.0308919
5,5,1,FC_052_F26.png,nonlure,nontarget,Face,0-Back,2,0,2,0,0,8,8,8,,,,,,,,,,,,,,,,,,,,,0,233.2448508,None,None,,233.2448508,None,235.2507332,None,0.5228234,2.0058824,,,,,,,,Jocelyn_personal,1,2024_Feb_19_1531,nback-master,2021.1.4,60.0308919
5,5,1,FC_050_F25.png,lure,nontarget,Face,0-Back,2,0,2,0,0,9,9,9,,,,,,,,,,,,,,,,,,,,,0,235.7735566,None,None,,235.7735566,None,None,None,#VALUE!,#VALUE!,,,,,,,,Jocelyn_personal,1,2024_Feb_19_1531,nback-master,2021.1.4,60.0308919
5,6,1,TO_055_TOOL55_BA.png,nonlure,nontarget,Tools,2-Back,2,0,2,0,,,,,0,0,0,0,,,,,,,,,,,,,,,,,0,240.7076181,None,None,,240.7076181,None,242.7133231,None,0.5261714,2.005705,,237.8147953,None,237.8147953,None,,,Jocelyn_personal,1,2024_Feb_19_1531,nback-master,2021.1.4,60.0308919
5,6,1,TO_056_TOOL56_BA.png,nonlure,nontarget,Tools,2-Back,2,0,2,0,,,,,0,1,1,1,,,,,,,,,,,,,,,,,0,243.2394945,None,None,,243.2394945,None,245.2452467,None,0.5018449,2.0057522,,,,,,,,Jocelyn_personal,1,2024_Feb_19_1531,nback-master,2021.1.4,60.0308919
5,6,1,TO_055_TOOL55_BA.png,target,target,Tools,2-Back,2,0,2,0,,,,,0,2,2,2,,,,,,,,,,,,,,,,,0,245.7470916,None,None,,245.7470916,None,247.7442906,None,0.52199,1.997199,,,,,,,,Jocelyn_personal,1,2024_Feb_19_1531,nback-master,2021.1.4,60.0308919
5,6,1,TO_057_TOOL57_BA.png,nonlure,nontarget,Tools,2-Back,2,0,2,0,,,,,0,3,3,3,,,,,,,,,,,,,,,,,0,248.2662806,None,None,,248.2662806,None,250.2590594,None,0.5202236,1.9927788,,,,,,,,Jocelyn_personal,1,2024_Feb_19_1531,nback-master,2021.1.4,60.0308919
5,6,1,TO_059_TOOL59_BA.png,nonlure,nontarget,Tools,2-Back,2,0,2,0,,,,,0,4,4,4,,,,,,,,,,,,,,,,,0,250.779283,None,None,,250.779283,None,252.7743707,None,0.5034542,1.9950877,,,,,,,,Jocelyn_personal,1,2024_Feb_19_1531,nback-master,2021.1.4,60.0308919
5,6,1,TO_057_TOOL57_BA.png,target,target,Tools,2-Back,2,0,2,0,,,,,0,5,5,5,,,,,,,,,,,,,,,,,0,253.2778249,None,None,,253.2778249,None,255.27292,None,0.5054829,1.9950951,,,,,,,,Jocelyn_personal,1,2024_Feb_19_1531,nback-master,2021.1.4,60.0308919
5,6,1,TO_058_TOOL58_BA.png,nonlure,nontarget,Tools,2-Back,2,0,2,0,,,,,0,6,6,6,,,,,,,,,,,,,,,,,0,255.7784029,None,None,,255.7784029,None,257.7715236,None,0.5078943,1.9931207,,,,,,,,Jocelyn_personal,1,2024_Feb_19_1531,nback-master,2021.1.4,60.0308919
5,6,1,TO_060_TOOL60_BA.png,nonlure,nontarget,Tools,2-Back,2,0,2,0,,,,,0,7,7,7,,,,,,,,,,,,,,,,,0,258.2794179,None,None,,258.2794179,None,260.2868955,None,0.503037,2.0074776,,,,,,,,Jocelyn_personal,1,2024_Feb_19_1531,nback-master,2021.1.4,60.0308919
5,6,1,TO_059_TOOL59_BA.png,lure,nontarget,Tools,2-Back,2,0,2,0,,,,,0,8,8,8,,,,,,,,,,,,,,,,,0,260.7899325,None,None,,260.7899325,None,262.7854287,None,0.5023318,1.9954962,,,,,,,,Jocelyn_personal,1,2024_Feb_19_1531,nback-master,2021.1.4,60.0308919
5,6,1,TO_058_TOOL58_BA.png,lure,nontarget,Tools,2-Back,2,0,2,0,,,,,0,9,9,9,,,,,,,,,,,,,,,,,0,263.2877605,None,None,,263.2877605,None,None,None,#VALUE!,#VALUE!,,,,,,,,Jocelyn_personal,1,2024_Feb_19_1531,nback-master,2021.1.4,60.0308919
,,,,,,,,2,0,2,0,,,,,,,,,,,,,,,,,,,,,,,,,,,,,,,,,,0,0,,,,,,265.2840292,None,Jocelyn_personal,1,2024_Feb_19_1531,nback-master,2021.1.4,60.0308919
,,,,,,,,,,,,,,,,,,,,,,,,,,,,,,,,280.4237071,None,280.4237071,None,,,,,,,,,,0,0,,,,,,,,,,,,,
