cond,topText,topColour,bottomText,congruent,match,corrAns,trials.thisRepN,trials.thisTrialN,trials.thisN,trials.thisIndex,instrText.started,instrText.stopped,ITI,fixation_jitter.started,fixation_jitter.stopped,useRows,topTxt.started,topTxt.stopped,bottomTxt.started,bottomTxt.stopped,resp.keys,resp.corr,resp.rt,resp.started,resp.stopped,thanksText.started,thanksText.stopped,participant,session,date,expName,psychopyVersion,frameRate
3,黃,yellow,紅,1,0,j,0,0,0,13,11.6112654,None,2,50.6197185,None,63,52.6339625,None,52.6339625,None,j,1,1.2026066,52.6339625,None,,,testing,1,2023_Dec_05_1430,stroop,2021.1.4,60.04844711
1,紅,red,紅,1,1,f,0,1,1,50,,,3.8,53.8622152,None,5,57.6806703,None,57.6806703,None,f,1,0.7809053,57.6806703,None,,,testing,1,2023_Dec_05_1430,stroop,2021.1.4,60.04844711
2,紅,blue,藍,0,1,f,0,2,2,29,,,3.9,58.4927285,None,13,62.4002864,None,62.4002864,None,j,0,1.3912326,62.4002864,None,,,testing,1,2023_Dec_05_1430,stroop,2021.1.4,60.04844711
2,綠,red,紅,0,1,f,0,3,3,30,,,3.6,63.8065586,None,39,67.4309082,None,67.4309082,None,j,0,1.2576732,67.4309082,None,,,testing,1,2023_Dec_05_1430,stroop,2021.1.4,60.04844711
2,紅,yellow,黃,0,1,f,0,4,4,52,,,2.2,68.7036215,None,12,70.9074581,None,70.9074581,None,f,1,0.8621744,70.9074581,None,,,testing,1,2023_Dec_05_1430,stroop,2021.1.4,60.04844711
2,綠,blue,藍,0,1,f,0,5,5,34,,,2.5,71.7850328,None,15,74.3006115,None,74.3006115,None,f,1,0.9655505,74.3006115,None,,,testing,1,2023_Dec_05_1430,stroop,2021.1.4,60.04844711
3,黃,yellow,紅,1,0,j,0,6,6,68,,,2.7,75.2835049,None,0,77.9984538,None,77.9984538,None,j,1,1.0800542,77.9984538,None,,,testing,1,2023_Dec_05_1430,stroop,2021.1.4,60.04844711
4,綠,yellow,紅,0,0,j,0,7,7,63,,,3.4,79.0975556,None,24,82.4986315,None,82.4986315,None,j,1,1.2260219,82.4986315,None,,,testing,1,2023_Dec_05_1430,stroop,2021.1.4,60.04844711
1,紅,red,紅,1,1,f,0,8,8,41,,,2.2,83.7455508,None,44,85.9463797,None,85.9463797,None,f,1,0.644151,85.9463797,None,,,testing,1,2023_Dec_05_1430,stroop,2021.1.4,60.04844711
1,藍,blue,藍,1,1,f,0,9,9,47,,,3.5,86.6100917,None,43,90.1244421,None,90.1244421,None,j,0,0.3584198,90.1244421,None,,,testing,1,2023_Dec_05_1430,stroop,2021.1.4,60.04844711
2,紅,green,綠,0,1,f,0,10,10,67,,,2.2,90.5082763,None,51,92.7267974,None,92.7267974,None,f,1,0.3762136,92.7267974,None,,,testing,1,2023_Dec_05_1430,stroop,2021.1.4,60.04844711
2,綠,yellow,黃,0,1,f,0,11,11,75,,,3.3,93.123251,None,3,96.4387783,None,96.4387783,None,j,0,0.2698087,96.4387783,None,,,testing,1,2023_Dec_05_1430,stroop,2021.1.4,60.04844711
3,綠,green,紅,1,0,j,0,12,12,70,,,3,96.738183,None,18,99.7555531,None,99.7555531,None,f,0,0.3966175,99.7555531,None,,,testing,1,2023_Dec_05_1430,stroop,2021.1.4,60.04844711
3,綠,green,黃,1,0,j,0,13,13,25,,,3.6,100.1689965,None,22,103.7713231,None,103.7713231,None,f,0,0.7056929,103.7713231,None,,,testing,1,2023_Dec_05_1430,stroop,2021.1.4,60.04844711
1,綠,green,綠,1,1,f,0,14,14,11,,,3.5,104.5003494,None,24,108.0181536,None,108.0181536,None,f,1,0.6564493,108.0181536,None,,,testing,1,2023_Dec_05_1430,stroop,2021.1.4,60.04844711
4,藍,green,紅,0,0,j,0,15,15,9,,,3.8,108.6985348,None,3,112.5123621,None,112.5123621,None,j,1,0.7110925,112.5123621,None,,,testing,1,2023_Dec_05_1430,stroop,2021.1.4,60.04844711
3,紅,red,綠,1,0,j,0,16,16,12,,,3.8,113.2482198,None,0,117.0641658,None,117.0641658,None,f,0,0.7418332,117.0641658,None,,,testing,1,2023_Dec_05_1430,stroop,2021.1.4,60.04844711
1,黃,yellow,黃,1,1,f,0,17,17,57,,,2.7,117.8262001,None,27,120.5410104,None,120.5410104,None,f,1,1.1390365,120.5410104,None,,,testing,1,2023_Dec_05_1430,stroop,2021.1.4,60.04844711
1,紅,red,紅,1,1,f,0,18,18,78,,,3.4,121.7069019,None,23,125.1213851,None,125.1213851,None,f,1,0.7830477,125.1213851,None,,,testing,1,2023_Dec_05_1430,stroop,2021.1.4,60.04844711
1,紅,red,紅,1,1,f,0,19,19,64,,,2.4,125.9219195,None,8,128.3210108,None,128.3210108,None,f,1,0.554044,128.3210108,None,,,testing,1,2023_Dec_05_1430,stroop,2021.1.4,60.04844711
3,綠,green,黃,1,0,j,0,20,20,17,,,2,128.9034188,None,10,130.9068203,None,130.9068203,None,j,1,1.4372154,130.9068203,None,,,testing,1,2023_Dec_05_1430,stroop,2021.1.4,60.04844711
3,綠,green,黃,1,0,j,0,21,21,32,,,3.5,132.3680616,None,36,135.883534,None,135.883534,None,j,1,0.7672318,135.883534,None,,,testing,1,2023_Dec_05_1430,stroop,2021.1.4,60.04844711
1,藍,blue,藍,1,1,f,0,22,22,59,,,3,136.6662314,None,0,139.6800772,None,139.6800772,None,f,1,0.8448475,139.6800772,None,,,testing,1,2023_Dec_05_1430,stroop,2021.1.4,60.04844711
2,綠,red,紅,0,1,f,0,23,23,58,,,3,140.5469824,None,5,143.5649702,None,143.5649702,None,j,0,0.9076475,143.5649702,None,,,testing,1,2023_Dec_05_1430,stroop,2021.1.4,60.04844711
2,綠,red,紅,0,1,f,0,24,24,2,,,3.8,144.4946373,None,17,148.3095289,None,148.3095289,None,None,0,,148.3095289,None,,,testing,1,2023_Dec_05_1430,stroop,2021.1.4,60.04844711
2,紅,yellow,黃,0,1,f,0,25,25,23,,,3.2,150.3247038,None,27,153.5394208,None,153.5394208,None,f,1,0.3583263,153.5394208,None,,,testing,1,2023_Dec_05_1430,stroop,2021.1.4,60.04844711
1,紅,red,紅,1,1,f,0,26,26,22,,,3.2,153.9226594,None,39,157.1387595,None,157.1387595,None,f,1,0.984515,157.1387595,None,,,testing,1,2023_Dec_05_1430,stroop,2021.1.4,60.04844711
4,綠,yellow,綠,0,0,j,0,27,27,0,,,3.8,158.1535283,None,50,161.9685833,None,161.9685833,None,f,0,1.0561926,161.9685833,None,,,testing,1,2023_Dec_05_1430,stroop,2021.1.4,60.04844711
4,紅,green,黃,0,0,j,0,28,28,21,,,3.6,163.0506421,None,22,166.6563806,None,166.6563806,None,j,1,1.2088905,166.6563806,None,,,testing,1,2023_Dec_05_1430,stroop,2021.1.4,60.04844711
4,綠,yellow,紅,0,0,j,0,29,29,54,,,3.2,167.881538,None,4,171.0993982,None,171.0993982,None,None,0,,171.0993982,None,,,testing,1,2023_Dec_05_1430,stroop,2021.1.4,60.04844711
2,綠,yellow,黃,0,1,f,0,30,30,5,,,2.3,173.1117427,None,13,175.417211,None,175.417211,None,j,0,0.3782245,175.417211,None,,,testing,1,2023_Dec_05_1430,stroop,2021.1.4,60.04844711
4,藍,red,藍,0,0,j,0,31,31,53,,,2.5,175.8270373,None,1,178.3304759,None,178.3304759,None,None,0,,178.3304759,None,,,testing,1,2023_Dec_05_1430,stroop,2021.1.4,60.04844711
1,紅,red,紅,1,1,f,0,32,32,6,,,3.8,180.341572,None,27,184.1554702,None,184.1554702,None,f,1,0.4076841,184.1554702,None,,,testing,1,2023_Dec_05_1430,stroop,2021.1.4,60.04844711
3,黃,yellow,綠,1,0,j,0,33,33,14,,,2,184.5888558,None,10,186.6084446,None,186.6084446,None,j,1,0.7911873,186.6084446,None,,,testing,1,2023_Dec_05_1430,stroop,2021.1.4,60.04844711
3,黃,yellow,紅,1,0,j,0,34,34,45,,,3,187.4205084,None,14,190.4383771,None,190.4383771,None,j,1,0.989433,190.4383771,None,,,testing,1,2023_Dec_05_1430,stroop,2021.1.4,60.04844711
3,綠,green,紅,1,0,j,0,35,35,60,,,2.3,191.4515618,None,13,193.7525536,None,193.7525536,None,j,1,0.8482131,193.7525536,None,,,testing,1,2023_Dec_05_1430,stroop,2021.1.4,60.04844711
2,藍,red,紅,0,1,f,0,36,36,36,,,4,194.616341,None,7,198.6470222,None,198.6470222,None,f,1,0.6549714,198.6470222,None,,,testing,1,2023_Dec_05_1430,stroop,2021.1.4,60.04844711
2,綠,red,紅,0,1,f,0,37,37,35,,,3.4,199.3307677,None,1,202.74543,None,202.74543,None,f,1,1.0025971,202.74543,None,,,testing,1,2023_Dec_05_1430,stroop,2021.1.4,60.04844711
3,黃,yellow,藍,1,0,j,0,38,38,18,,,3,203.7779112,None,25,206.794471,None,206.794471,None,j,1,0.7801741,206.794471,None,,,testing,1,2023_Dec_05_1430,stroop,2021.1.4,60.04844711
2,黃,green,綠,0,1,f,0,39,39,4,,,2.9,207.5928692,None,29,210.5072201,None,210.5072201,None,f,1,0.7617517,210.5072201,None,,,testing,1,2023_Dec_05_1430,stroop,2021.1.4,60.04844711
1,綠,green,綠,1,1,f,0,40,40,55,,,2.1,211.2903635,None,0,213.4039739,None,213.4039739,None,f,1,0.8641098,213.4039739,None,,,testing,1,2023_Dec_05_1430,stroop,2021.1.4,60.04844711
1,藍,blue,藍,1,1,f,0,41,41,62,,,3.4,214.2890755,None,0,217.7073982,None,217.7073982,None,f,1,0.6334957,217.7073982,None,,,testing,1,2023_Dec_05_1430,stroop,2021.1.4,60.04844711
2,黃,red,紅,0,1,f,0,42,42,33,,,2,218.3697652,None,25,220.3685181,None,220.3685181,None,f,1,0.8526612,220.3685181,None,,,testing,1,2023_Dec_05_1430,stroop,2021.1.4,60.04844711
3,黃,yellow,綠,1,0,j,0,43,43,7,,,2.1,221.2513901,None,0,223.3536101,None,223.3536101,None,j,1,0.8193611,223.3536101,None,,,testing,1,2023_Dec_05_1430,stroop,2021.1.4,60.04844711
1,綠,green,綠,1,1,f,0,44,44,15,,,3,224.1998509,None,61,227.2170202,None,227.2170202,None,f,1,0.7432115,227.2170202,None,,,testing,1,2023_Dec_05_1430,stroop,2021.1.4,60.04844711
4,紅,blue,黃,0,0,j,0,45,45,39,,,2.2,227.9810694,None,22,230.1966045,None,230.1966045,None,j,1,0.9207505,230.1966045,None,,,testing,1,2023_Dec_05_1430,stroop,2021.1.4,60.04844711
4,藍,yellow,紅,0,0,j,0,46,46,74,,,3.7,231.1459382,None,37,234.8584201,None,234.8584201,None,j,1,1.2175561,234.8584201,None,,,testing,1,2023_Dec_05_1430,stroop,2021.1.4,60.04844711
2,藍,red,紅,0,1,f,0,47,47,76,,,3.7,236.0929837,None,1,239.7921963,None,239.7921963,None,f,1,0.7545424,239.7921963,None,,,testing,1,2023_Dec_05_1430,stroop,2021.1.4,60.04844711
4,紅,yellow,紅,0,0,j,0,48,48,69,,,3.5,240.5740553,None,17,244.0909352,None,244.0909352,None,j,1,0.9102295,244.0909352,None,,,testing,1,2023_Dec_05_1430,stroop,2021.1.4,60.04844711
4,黃,blue,黃,0,0,j,0,49,49,27,,,2.3,245.0215544,None,38,247.3249467,None,247.3249467,None,j,1,1.2188456,247.3249467,None,,,testing,1,2023_Dec_05_1430,stroop,2021.1.4,60.04844711
3,紅,red,黃,1,0,j,0,50,50,48,,,3.3,248.5695148,None,0,251.8843263,None,251.8843263,None,j,1,0.9730442,251.8843263,None,,,testing,1,2023_Dec_05_1430,stroop,2021.1.4,60.04844711
1,紅,red,紅,1,1,f,0,51,51,43,,,3,252.8837631,None,59,255.8986144,None,255.8986144,None,f,1,0.5955957,255.8986144,None,,,testing,1,2023_Dec_05_1430,stroop,2021.1.4,60.04844711
3,綠,green,藍,1,0,j,0,52,52,56,,,4,256.5152127,None,5,260.5378991,None,260.5378991,None,j,1,0.9439215,260.5378991,None,,,testing,1,2023_Dec_05_1430,stroop,2021.1.4,60.04844711
4,黃,blue,綠,0,0,j,0,53,53,10,,,3.3,261.5116279,None,37,264.8267817,None,264.8267817,None,j,1,1.2628571,264.8267817,None,,,testing,1,2023_Dec_05_1430,stroop,2021.1.4,60.04844711
2,藍,yellow,黃,0,1,f,0,54,54,19,,,3.6,266.1093697,None,61,269.7289179,None,269.7289179,None,f,1,0.9752061,269.7289179,None,,,testing,1,2023_Dec_05_1430,stroop,2021.1.4,60.04844711
4,藍,red,綠,0,0,j,0,55,55,26,,,2.9,270.724023,None,3,273.6413571,None,273.6413571,None,j,1,1.0564204,273.6413571,None,,,testing,1,2023_Dec_05_1430,stroop,2021.1.4,60.04844711
3,綠,green,紅,1,0,j,0,56,56,38,,,2.9,274.7215575,None,26,277.641442,None,277.641442,None,j,1,0.7376273,277.641442,None,,,testing,1,2023_Dec_05_1430,stroop,2021.1.4,60.04844711
4,紅,blue,黃,0,0,j,0,57,57,72,,,3.7,278.4028318,None,2,282.1232345,None,282.1232345,None,j,1,0.680173,282.1232345,None,,,testing,1,2023_Dec_05_1430,stroop,2021.1.4,60.04844711
1,藍,blue,藍,1,1,f,0,58,58,31,,,2.1,282.8335567,None,13,284.935392,None,284.935392,None,f,1,0.7153123,284.935392,None,,,testing,1,2023_Dec_05_1430,stroop,2021.1.4,60.04844711
2,紅,yellow,黃,0,1,f,0,59,59,73,,,2.2,285.6825054,None,1,287.9001423,None,287.9001423,None,f,1,0.9494197,287.9001423,None,,,testing,1,2023_Dec_05_1430,stroop,2021.1.4,60.04844711
3,黃,yellow,紅,1,0,j,0,60,60,28,,,2.3,288.8805246,None,25,291.1954035,None,291.1954035,None,j,1,0.9512263,291.1954035,None,,,testing,1,2023_Dec_05_1430,stroop,2021.1.4,60.04844711
3,藍,blue,黃,1,0,j,0,61,61,66,,,2.8,292.1782837,None,31,294.9830529,None,294.9830529,None,j,1,0.8534956,294.9830529,None,,,testing,1,2023_Dec_05_1430,stroop,2021.1.4,60.04844711
3,黃,yellow,藍,1,0,j,0,62,62,65,,,3.7,295.8598127,None,1,299.5740168,None,299.5740168,None,j,1,1.1209357,299.5740168,None,,,testing,1,2023_Dec_05_1430,stroop,2021.1.4,60.04844711
4,綠,yellow,紅,0,0,j,0,63,63,44,,,3.6,300.7235761,None,61,304.3399942,None,304.3399942,None,j,1,1.0274128,304.3399942,None,,,testing,1,2023_Dec_05_1430,stroop,2021.1.4,60.04844711
3,紅,red,黃,1,0,j,0,64,64,24,,,2.1,305.3876656,None,0,307.5028619,None,307.5028619,None,j,1,0.7841838,307.5028619,None,,,testing,1,2023_Dec_05_1430,stroop,2021.1.4,60.04844711
4,藍,green,藍,0,0,j,0,65,65,8,,,2.8,308.3025388,None,23,311.1170979,None,311.1170979,None,j,1,0.8587689,311.1170979,None,,,testing,1,2023_Dec_05_1430,stroop,2021.1.4,60.04844711
1,黃,yellow,黃,1,1,f,0,66,66,71,,,3.1,312.0005477,None,20,315.1005078,None,315.1005078,None,f,1,0.7749287,315.1005078,None,,,testing,1,2023_Dec_05_1430,stroop,2021.1.4,60.04844711
4,綠,blue,黃,0,0,j,0,67,67,51,,,2.8,315.8983889,None,6,318.7138252,None,318.7138252,None,j,1,0.7059809,318.7138252,None,,,testing,1,2023_Dec_05_1430,stroop,2021.1.4,60.04844711
2,黃,red,紅,0,1,f,0,68,68,20,,,3.3,319.4460744,None,22,322.7674141,None,322.7674141,None,f,1,0.9436908,322.7674141,None,,,testing,1,2023_Dec_05_1430,stroop,2021.1.4,60.04844711
4,藍,red,黃,0,0,j,0,69,69,49,,,3.3,323.7270019,None,31,327.0315978,None,327.0315978,None,j,1,0.8633236,327.0315978,None,,,testing,1,2023_Dec_05_1430,stroop,2021.1.4,60.04844711
1,紅,red,紅,1,1,f,0,70,70,79,,,2.6,327.9248205,None,25,330.5251259,None,330.5251259,None,f,1,0.6603984,330.5251259,None,,,testing,1,2023_Dec_05_1430,stroop,2021.1.4,60.04844711
4,藍,red,綠,0,0,j,0,71,71,3,,,2.9,331.2064326,None,2,334.123329,None,334.123329,None,j,1,0.713426,334.123329,None,,,testing,1,2023_Dec_05_1430,stroop,2021.1.4,60.04844711
1,紅,red,紅,1,1,f,0,72,72,40,,,2,334.8541463,None,29,336.8654275,None,336.8654275,None,f,1,0.5946679,336.8654275,None,,,testing,1,2023_Dec_05_1430,stroop,2021.1.4,60.04844711
4,藍,red,藍,0,0,j,0,73,73,46,,,4,337.4865851,None,5,341.4932657,None,341.4932657,None,j,1,0.9300396,341.4932657,None,,,testing,1,2023_Dec_05_1430,stroop,2021.1.4,60.04844711
2,紅,yellow,黃,0,1,f,0,74,74,1,,,2.3,342.4500585,None,40,344.7524195,None,344.7524195,None,j,0,0.710044,344.7524195,None,,,testing,1,2023_Dec_05_1430,stroop,2021.1.4,60.04844711
1,藍,blue,藍,1,1,f,0,75,75,37,,,2.2,345.4829036,None,15,347.6972578,None,347.6972578,None,f,1,0.6826031,347.6972578,None,,,testing,1,2023_Dec_05_1430,stroop,2021.1.4,60.04844711
1,紅,red,紅,1,1,f,0,76,76,16,,,2.7,348.3968841,None,7,351.0950772,None,351.0950772,None,f,1,1.0667517,351.0950772,None,,,testing,1,2023_Dec_05_1430,stroop,2021.1.4,60.04844711
4,紅,yellow,紅,0,0,j,0,77,77,61,,,2.4,352.177729,None,7,354.5937372,None,354.5937372,None,j,1,0.8378533,354.5937372,None,,,testing,1,2023_Dec_05_1430,stroop,2021.1.4,60.04844711
2,藍,red,紅,0,1,f,0,78,78,77,,,3,355.4593793,None,0,358.4586883,None,358.4586883,None,f,1,1.0600499,358.4586883,None,,,testing,1,2023_Dec_05_1430,stroop,2021.1.4,60.04844711
3,綠,green,紅,1,0,j,0,79,79,42,,,2.7,359.5404526,None,0,362.2429496,None,362.2429496,None,j,1,0.9227201,362.2429496,None,,,testing,1,2023_Dec_05_1430,stroop,2021.1.4,60.04844711
,,,,,,,,,,,,,,,,,,,,,,,,,,363.1888293,None,,,,,,
