cond,topText,topColour,bottomText,congruent,match,corrAns,block.thisRepN,block.thisTrialN,block.thisN,block.thisIndex,trials.thisRepN,trials.thisTrialN,trials.thisN,trials.thisIndex,trigger_txt.started,trigger_resp.started,trigger_resp.keys,trigger_resp.rt,trigger_resp.duration,instr_txt.started,prepared_resp.started,prep_instr.started,prep_instr.stopped,start_indicator.started,start_indicator.stopped,use_rows,top_txt.started,bottom_txt.started,key_resp.started,top_txt.stopped,bottom_txt.stopped,key_resp.stopped,key_resp.keys,key_resp.corr,trial_fixation.started,trial_fixation.stopped,key_resp.rt,key_resp.duration,rest_txt.started,rest_txt.stopped,end_txt.started,end_key_resp.started,end_key_resp.keys,end_key_resp.rt,end_key_resp.duration,participant,session,date,expName,psychopyVersion,frameRate,
,,,,,,,,,,,,,,,19.283566099999007,19.283566099999007,s,0.33977350004715845,None,,,,,,,,,,,,,,,,,,,,,,,,,,,Liu_Teng_ZB216,001,2024-02-27_15h37.26.589,stroop-master,2023.1.3,60.15424752654399,
3,綠,green,黃,1,0,2,0,0,0,0,0,0,0,0,,,,,,19.647741699998733,19.647741699998733,20.944354699982796,22.939256299985573,22.939256299985573,23.458884299965575,27,23.458884299965575,23.537460099963937,23.537460099963937,25.432482599979267,25.432482599979267,25.432482599979267,None,0,25.432482599979267,25.93121039995458,,,,,,,,,,Liu_Teng_ZB216,001,2024-02-27_15h37.26.589,stroop-master,2023.1.3,60.15424752654399,
1,藍,blue,藍,1,1,1,0,0,0,0,0,1,1,4,,,,,,,,,,,,3,25.93121039995458,26.031056199979503,26.031056199979503,27.925906299962662,27.925906299962662,27.925906299962662,1,1,27.925906299962662,28.42461689998163,1.0391883000265807,None,,,,,,,,Liu_Teng_ZB216,001,2024-02-27_15h37.26.589,stroop-master,2023.1.3,60.15424752654399,
1,藍,blue,藍,1,1,1,0,0,0,0,0,2,2,3,,,,,,,,,,,,0,28.42461689998163,28.524378399946727,28.524378399946727,30.41945999994641,30.41945999994641,30.41945999994641,1,1,30.41945999994641,30.918308199965395,0.8861216000514105,None,,,,,,,,Liu_Teng_ZB216,001,2024-02-27_15h37.26.589,stroop-master,2023.1.3,60.15424752654399,
3,藍,blue,黃,1,0,2,0,0,0,0,0,3,3,8,,,,,,,,,,,,1,30.918308199965395,31.018037599977106,31.018037599977106,32.91288789996179,32.91288789996179,32.91288789996179,2,1,32.91288789996179,33.41153129999293,0.838383500056807,None,,,,,,,,Liu_Teng_ZB216,001,2024-02-27_15h37.26.589,stroop-master,2023.1.3,60.15424752654399,
3,紅,red,綠,1,0,2,0,0,0,0,0,4,4,7,,,,,,,,,,,,1,33.41153129999293,33.51136519998545,33.51136519998545,35.40632699994603,35.40632699994603,35.40632699994603,2,1,35.40632699994603,35.90501949994359,1.2030301000922918,None,,,,,,,,Liu_Teng_ZB216,001,2024-02-27_15h37.26.589,stroop-master,2023.1.3,60.15424752654399,
3,藍,blue,綠,1,0,2,0,0,0,0,0,5,5,6,,,,,,,,,,,,1,35.90501949994359,36.00476769998204,36.00476769998204,37.89995629998157,37.89995629998157,37.89995629998157,2,1,37.89995629998157,38.3985709999688,1.0806366000324488,None,,,,,,,,Liu_Teng_ZB216,001,2024-02-27_15h37.26.589,stroop-master,2023.1.3,60.15424752654399,
3,黃,yellow,紅,1,0,2,0,0,0,0,0,6,6,10,,,,,,,,,,,,21,38.3985709999688,38.498357599950396,38.498357599950396,40.39313559996663,40.39313559996663,40.39313559996663,2,1,40.39313559996663,40.891859699971974,1.0618776000337675,None,,,,,,,,Liu_Teng_ZB216,001,2024-02-27_15h37.26.589,stroop-master,2023.1.3,60.15424752654399,
1,紅,red,紅,1,1,1,0,0,0,0,0,7,7,9,,,,,,,,,,,,18,40.891859699971974,40.99157469999045,40.99157469999045,42.8868462999817,42.8868462999817,42.8868462999817,1,1,42.8868462999817,43.38524349994259,0.7177040000678971,None,,,,,,,,Liu_Teng_ZB216,001,2024-02-27_15h37.26.589,stroop-master,2023.1.3,60.15424752654399,
1,綠,green,綠,1,1,1,0,0,0,0,0,8,8,1,,,,,,,,,,,,20,43.38524349994259,43.4850688999868,43.4850688999868,45.38020009995671,45.38020009995671,45.38020009995671,1,1,45.38020009995671,45.87887429998955,0.7811983000137843,None,,,,,,,,Liu_Teng_ZB216,001,2024-02-27_15h37.26.589,stroop-master,2023.1.3,60.15424752654399,
3,藍,blue,綠,1,0,2,0,0,0,0,0,9,9,11,,,,,,,,,,,,0,45.87887429998955,45.97866099997191,45.97866099997191,47.87358559999848,47.87358559999848,47.87358559999848,2,1,47.87358559999848,48.37215439998545,1.1280365000129677,None,,,,,,,,Liu_Teng_ZB216,001,2024-02-27_15h37.26.589,stroop-master,2023.1.3,60.15424752654399,
1,藍,blue,藍,1,1,1,0,0,0,0,0,10,10,5,,,,,,,,,,,,22,48.37215439998545,48.47206199995708,48.47206199995708,50.367083599965554,50.367083599965554,50.367083599965554,1,1,50.367083599965554,50.865977699984796,0.8839985000668094,None,,,,,,,,Liu_Teng_ZB216,001,2024-02-27_15h37.26.589,stroop-master,2023.1.3,60.15424752654399,
1,紅,red,紅,1,1,1,0,0,0,0,0,11,11,2,,,,,,,,,,,,21,50.865977699984796,50.96573439997155,50.96573439997155,52.86052289995132,52.86052289995132,52.86052289995132,1,1,,,0.6615746000315994,None,,,,,,,,Liu_Teng_ZB216,001,2024-02-27_15h37.26.589,stroop-master,2023.1.3,60.15424752654399,
,,,,,,,0,0,0,0,,,,,,,,,,,,,,,,,,,,,,,,,,,,,52.86052289995132,82.81555799994385,,,,,,Liu_Teng_ZB216,001,2024-02-27_15h37.26.589,stroop-master,2023.1.3,60.15424752654399,
3,綠,green,藍,1,0,2,1,0,1,0,0,0,0,2,,,,,,,,82.81555799994385,84.80991829995764,84.80991829995764,85.3239912999561,27,85.3239912999561,85.4085197999957,85.4085197999957,87.30347799998708,87.30347799998708,87.30347799998708,2,1,87.30347799998708,87.80200509994756,0.9054915001033805,None,,,,,,,,Liu_Teng_ZB216,001,2024-02-27_15h37.26.589,stroop-master,2023.1.3,60.15424752654399,
3,紅,red,綠,1,0,2,1,0,1,0,0,1,1,7,,,,,,,,,,,,3,87.80200509994756,87.9019201999763,87.9019201999763,89.7970022999798,89.7970022999798,89.7970022999798,2,1,89.7970022999798,90.29565929999808,0.8042113000410609,None,,,,,,,,Liu_Teng_ZB216,001,2024-02-27_15h37.26.589,stroop-master,2023.1.3,60.15424752654399,
1,藍,blue,藍,1,1,1,1,0,1,0,0,2,2,5,,,,,,,,,,,,26,90.29565929999808,90.39549049997004,90.39549049997004,92.2902357999701,92.2902357999701,92.2902357999701,1,1,92.2902357999701,92.78905029996531,0.5971397000248544,None,,,,,,,,Liu_Teng_ZB216,001,2024-02-27_15h37.26.589,stroop-master,2023.1.3,60.15424752654399,
1,綠,green,綠,1,1,1,1,0,1,0,0,3,3,3,,,,,,,,,,,,3,92.78905029996531,92.88868009997532,92.88868009997532,94.78393859998323,94.78393859998323,94.78393859998323,1,1,94.78393859998323,95.28255569998873,0.547533800068777,None,,,,,,,,Liu_Teng_ZB216,001,2024-02-27_15h37.26.589,stroop-master,2023.1.3,60.15424752654399,
1,綠,green,綠,1,1,1,1,0,1,0,0,4,4,11,,,,,,,,,,,,16,95.28255569998873,95.38213619997259,95.38213619997259,97.27722399996128,97.27722399996128,97.27722399996128,1,1,97.27722399996128,97.77584039996145,0.5607402000459842,None,,,,,,,,Liu_Teng_ZB216,001,2024-02-27_15h37.26.589,stroop-master,2023.1.3,60.15424752654399,
3,綠,green,黃,1,0,2,1,0,1,0,0,5,5,10,,,,,,,,,,,,1,97.77584039996145,97.87571909994585,97.87571909994585,99.77076169999782,99.77076169999782,99.77076169999782,2,1,99.77076169999782,100.26935749995755,0.6394595000892878,None,,,,,,,,Liu_Teng_ZB216,001,2024-02-27_15h37.26.589,stroop-master,2023.1.3,60.15424752654399,
3,紅,red,藍,1,0,2,1,0,1,0,0,6,6,4,,,,,,,,,,,,22,100.26935749995755,100.36921919998713,100.36921919998713,102.26428259996464,102.26428259996464,102.26428259996464,2,1,102.26428259996464,102.76307549997,0.7165668000816368,None,,,,,,,,Liu_Teng_ZB216,001,2024-02-27_15h37.26.589,stroop-master,2023.1.3,60.15424752654399,
3,綠,green,黃,1,0,2,1,0,1,0,0,7,7,0,,,,,,,,,,,,18,102.76307549997,102.86279209994245,102.86279209994245,104.75771149998764,104.75771149998764,104.75771149998764,2,1,104.75771149998764,105.25643369997852,0.7955439000506885,None,,,,,,,,Liu_Teng_ZB216,001,2024-02-27_15h37.26.589,stroop-master,2023.1.3,60.15424752654399,
1,紅,red,紅,1,1,1,1,0,1,0,0,8,8,9,,,,,,,,,,,,2,105.25643369997852,105.35615269996924,105.35615269996924,107.25112609995995,107.25112609995995,107.25112609995995,1,1,107.25112609995995,107.74968829995487,0.4771543000242673,None,,,,,,,,Liu_Teng_ZB216,001,2024-02-27_15h37.26.589,stroop-master,2023.1.3,60.15424752654399,
1,綠,green,綠,1,1,1,1,0,1,0,0,9,9,1,,,,,,,,,,,,0,107.74968829995487,107.84961049997946,107.84961049997946,109.74453089997405,109.74453089997405,109.74453089997405,1,1,109.74453089997405,110.24339179997332,0.6879891000571661,None,,,,,,,,Liu_Teng_ZB216,001,2024-02-27_15h37.26.589,stroop-master,2023.1.3,60.15424752654399,
1,黃,yellow,黃,1,1,1,1,0,1,0,0,10,10,8,,,,,,,,,,,,27,110.24339179997332,110.34321009996347,110.34321009996347,112.23799659998622,112.23799659998622,112.23799659998622,1,1,112.23799659998622,112.73673779994715,0.5737103000283241,None,,,,,,,,Liu_Teng_ZB216,001,2024-02-27_15h37.26.589,stroop-master,2023.1.3,60.15424752654399,
3,黃,yellow,紅,1,0,2,1,0,1,0,0,11,11,6,,,,,,,,,,,,3,112.73673779994715,112.83643869997468,112.83643869997468,114.73167639999883,114.73167639999883,114.73167639999883,2,1,,,0.7000047000474297,None,,,,,,,,Liu_Teng_ZB216,001,2024-02-27_15h37.26.589,stroop-master,2023.1.3,60.15424752654399,
,,,,,,,1,0,1,0,,,,,,,,,,,,,,,,,,,,,,,,,,,,,114.73167639999883,144.6862047999748,,,,,,Liu_Teng_ZB216,001,2024-02-27_15h37.26.589,stroop-master,2023.1.3,60.15424752654399,
2,黃,blue,藍,0,1,1,2,0,2,0,0,0,0,4,,,,,,,,144.6862047999748,146.68149409996113,146.68149409996113,147.19335009995848,8,147.19335009995848,147.2794652999728,147.2794652999728,149.17437309998786,149.17437309998786,149.17437309998786,2,0,149.17437309998786,149.67312269995455,0.7992604000028223,None,,,,,,,,Liu_Teng_ZB216,001,2024-02-27_15h37.26.589,stroop-master,2023.1.3,60.15424752654399,
2,紅,blue,藍,0,1,1,2,0,2,0,0,1,1,10,,,,,,,,,,,,8,149.67312269995455,149.7730030999519,149.7730030999519,151.6679764999426,151.6679764999426,151.6679764999426,2,0,151.6679764999426,152.16662889998406,0.8829065000754781,None,,,,,,,,Liu_Teng_ZB216,001,2024-02-27_15h37.26.589,stroop-master,2023.1.3,60.15424752654399,
4,黃,red,綠,0,0,2,2,0,2,0,0,2,2,11,,,,,,,,,,,,55,152.16662889998406,152.2663240999682,152.2663240999682,154.16141489997972,154.16141489997972,154.16141489997972,2,1,154.16141489997972,154.66018819995224,0.9101083000423387,None,,,,,,,,Liu_Teng_ZB216,001,2024-02-27_15h37.26.589,stroop-master,2023.1.3,60.15424752654399,
4,黃,green,藍,0,0,2,2,0,2,0,0,3,3,9,,,,,,,,,,,,14,154.66018819995224,154.76002569997218,154.76002569997218,156.65474279999034,156.65474279999034,156.65474279999034,2,1,156.65474279999034,157.15350369998487,0.8322289000498131,None,,,,,,,,Liu_Teng_ZB216,001,2024-02-27_15h37.26.589,stroop-master,2023.1.3,60.15424752654399,
4,綠,red,藍,0,0,2,2,0,2,0,0,4,4,2,,,,,,,,,,,,11,157.15350369998487,157.25338919996284,157.25338919996284,159.14836099999957,159.14836099999957,159.14836099999957,2,1,159.14836099999957,159.6469352999702,0.7652168000349775,None,,,,,,,,Liu_Teng_ZB216,001,2024-02-27_15h37.26.589,stroop-master,2023.1.3,60.15424752654399,
2,藍,yellow,黃,0,1,1,2,0,2,0,0,5,5,0,,,,,,,,,,,,58,159.6469352999702,159.74672539997846,159.74672539997846,161.64182919997256,161.64182919997256,161.64182919997256,1,1,161.64182919997256,162.14036399999168,1.044932000047993,None,,,,,,,,Liu_Teng_ZB216,001,2024-02-27_15h37.26.589,stroop-master,2023.1.3,60.15424752654399,
2,綠,blue,藍,0,1,1,2,0,2,0,0,6,6,3,,,,,,,,,,,,7,162.14036399999168,162.24039699998684,162.24039699998684,164.13503229996422,164.13503229996422,164.13503229996422,1,1,164.13503229996422,164.6338297999464,0.915690700057894,None,,,,,,,,Liu_Teng_ZB216,001,2024-02-27_15h37.26.589,stroop-master,2023.1.3,60.15424752654399,
2,藍,yellow,黃,0,1,1,2,0,2,0,0,7,7,1,,,,,,,,,,,,45,164.6338297999464,164.733649999951,164.733649999951,166.6287651999737,166.6287651999737,166.6287651999737,2,0,166.6287651999737,167.127386499953,0.9109552000300027,None,,,,,,,,Liu_Teng_ZB216,001,2024-02-27_15h37.26.589,stroop-master,2023.1.3,60.15424752654399,
4,藍,green,黃,0,0,2,2,0,2,0,0,8,8,7,,,,,,,,,,,,31,167.127386499953,167.22715179994702,167.22715179994702,169.12211719999323,169.12211719999323,169.12211719999323,2,1,169.12211719999323,169.62074429995846,0.7503882000455633,None,,,,,,,,Liu_Teng_ZB216,001,2024-02-27_15h37.26.589,stroop-master,2023.1.3,60.15424752654399,
4,綠,blue,紅,0,0,2,2,0,2,0,0,9,9,5,,,,,,,,,,,,53,169.62074429995846,169.72061789996224,169.72061789996224,171.6155592999421,171.6155592999421,171.6155592999421,2,1,171.6155592999421,172.11426279996522,1.2573657000320964,None,,,,,,,,Liu_Teng_ZB216,001,2024-02-27_15h37.26.589,stroop-master,2023.1.3,60.15424752654399,
4,紅,yellow,紅,0,0,2,2,0,2,0,0,10,10,8,,,,,,,,,,,,4,172.11426279996522,172.21399709995603,172.21399709995603,174.10912649997044,174.10912649997044,174.10912649997044,2,1,174.10912649997044,174.60786629997892,0.871687600039877,None,,,,,,,,Liu_Teng_ZB216,001,2024-02-27_15h37.26.589,stroop-master,2023.1.3,60.15424752654399,
2,藍,red,紅,0,1,1,2,0,2,0,0,11,11,6,,,,,,,,,,,,48,174.60786629997892,174.70767069997964,174.70767069997964,176.60251239995705,176.60251239995705,176.60251239995705,1,1,,,0.9100532000302337,None,,,,,,,,Liu_Teng_ZB216,001,2024-02-27_15h37.26.589,stroop-master,2023.1.3,60.15424752654399,
,,,,,,,2,0,2,0,,,,,,,,,,,,,,,,,,,,,,,,,,,,,176.60251239995705,206.55738279997604,,,,,,Liu_Teng_ZB216,001,2024-02-27_15h37.26.589,stroop-master,2023.1.3,60.15424752654399,
3,藍,blue,黃,1,0,2,3,0,3,0,0,0,0,6,,,,,,,,206.55738279997604,208.55198259995086,208.55198259995086,209.06489519996103,24,209.06489519996103,209.15029999997932,209.15029999997932,211.0452576999669,211.0452576999669,211.0452576999669,2,1,211.0452576999669,211.54411299998173,0.8281144000939094,None,,,,,,,,Liu_Teng_ZB216,001,2024-02-27_15h37.26.589,stroop-master,2023.1.3,60.15424752654399,
3,黃,yellow,綠,1,0,2,3,0,3,0,0,1,1,0,,,,,,,,,,,,2,211.54411299998173,211.6439244999783,211.6439244999783,213.538997799973,213.538997799973,213.538997799973,2,1,213.538997799973,214.03760099998908,0.9423373000463471,None,,,,,,,,Liu_Teng_ZB216,001,2024-02-27_15h37.26.589,stroop-master,2023.1.3,60.15424752654399,
1,綠,green,綠,1,1,1,3,0,3,0,0,2,2,11,,,,,,,,,,,,0,214.03760099998908,214.13742229994386,214.13742229994386,216.03227729996433,216.03227729996433,216.03227729996433,1,1,216.03227729996433,216.53111049998552,0.6003689000499435,None,,,,,,,,Liu_Teng_ZB216,001,2024-02-27_15h37.26.589,stroop-master,2023.1.3,60.15424752654399,
3,綠,green,黃,1,0,2,3,0,3,0,0,3,3,8,,,,,,,,,,,,22,216.53111049998552,216.63078799995128,216.63078799995128,218.52587179996772,218.52587179996772,218.52587179996772,2,1,218.52587179996772,219.02437909995206,1.1149332000641152,None,,,,,,,,Liu_Teng_ZB216,001,2024-02-27_15h37.26.589,stroop-master,2023.1.3,60.15424752654399,
1,黃,yellow,黃,1,1,1,3,0,3,0,0,4,4,1,,,,,,,,,,,,27,219.02437909995206,219.12427149998257,219.12427149998257,221.01917749998393,221.01917749998393,221.01917749998393,1,1,221.01917749998393,221.51788869994925,0.6296338000101969,None,,,,,,,,Liu_Teng_ZB216,001,2024-02-27_15h37.26.589,stroop-master,2023.1.3,60.15424752654399,
1,紅,red,紅,1,1,1,3,0,3,0,0,5,5,2,,,,,,,,,,,,23,221.51788869994925,221.61771179997595,221.61771179997595,223.5127300999593,223.5127300999593,223.5127300999593,1,1,223.5127300999593,224.01143269997556,0.47218760004034266,None,,,,,,,,Liu_Teng_ZB216,001,2024-02-27_15h37.26.589,stroop-master,2023.1.3,60.15424752654399,
1,紅,red,紅,1,1,1,3,0,3,0,0,6,6,10,,,,,,,,,,,,20,224.01143269997556,224.111163799942,224.111163799942,226.00612619996537,226.00612619996537,226.00612619996537,1,1,226.00612619996537,226.5050386999501,0.5197475000750273,None,,,,,,,,Liu_Teng_ZB216,001,2024-02-27_15h37.26.589,stroop-master,2023.1.3,60.15424752654399,
3,黃,yellow,藍,1,0,2,3,0,3,0,0,7,7,5,,,,,,,,,,,,0,226.5050386999501,226.60469709994504,226.60469709994504,228.50015359994723,228.50015359994723,228.50015359994723,2,1,228.50015359994723,228.99910929996986,0.9568813000805676,None,,,,,,,,Liu_Teng_ZB216,001,2024-02-27_15h37.26.589,stroop-master,2023.1.3,60.15424752654399,
3,綠,green,黃,1,0,2,3,0,3,0,0,8,8,4,,,,,,,,,,,,27,228.99910929996986,229.09849019994726,229.09849019994726,230.9937757999869,230.9937757999869,230.9937757999869,2,1,230.9937757999869,231.49250199995004,0.7762783000944182,None,,,,,,,,Liu_Teng_ZB216,001,2024-02-27_15h37.26.589,stroop-master,2023.1.3,60.15424752654399,
3,黃,yellow,紅,1,0,2,3,0,3,0,0,9,9,3,,,,,,,,,,,,3,231.49250199995004,231.59228089998942,231.59228089998942,233.48734219995094,233.48734219995094,233.48734219995094,2,1,233.48734219995094,233.98588319995906,0.8852316000266001,None,,,,,,,,Liu_Teng_ZB216,001,2024-02-27_15h37.26.589,stroop-master,2023.1.3,60.15424752654399,
1,紅,red,紅,1,1,1,3,0,3,0,0,10,10,7,,,,,,,,,,,,0,233.98588319995906,234.08583149994956,234.08583149994956,235.98036999994656,235.98036999994656,235.98036999994656,1,1,235.98036999994656,236.47905139997602,0.5723027000785805,None,,,,,,,,Liu_Teng_ZB216,001,2024-02-27_15h37.26.589,stroop-master,2023.1.3,60.15424752654399,
1,綠,green,綠,1,1,1,3,0,3,0,0,11,11,9,,,,,,,,,,,,3,236.47905139997602,236.5793132999679,236.5793132999679,238.47442769998452,238.47442769998452,238.47442769998452,1,1,,,0.6703426000312902,None,,,,,,,,Liu_Teng_ZB216,001,2024-02-27_15h37.26.589,stroop-master,2023.1.3,60.15424752654399,
,,,,,,,3,0,3,0,,,,,,,,,,,,,,,,,,,,,,,,,,,,,238.47442769998452,268.4291070999461,,,,,,Liu_Teng_ZB216,001,2024-02-27_15h37.26.589,stroop-master,2023.1.3,60.15424752654399,
2,綠,red,紅,0,1,1,4,0,4,0,0,0,0,2,,,,,,,,268.4291070999461,270.4236135999672,270.4236135999672,270.93663099996047,50,270.93663099996047,271.0218131999718,271.0218131999718,272.91688429994974,272.91688429994974,272.91688429994974,1,1,272.91688429994974,273.41555309999967,1.0576660000369884,None,,,,,,,,Liu_Teng_ZB216,001,2024-02-27_15h37.26.589,stroop-master,2023.1.3,60.15424752654399,
2,藍,green,綠,0,1,1,4,0,4,0,0,1,1,4,,,,,,,,,,,,37,273.41555309999967,273.5154223999707,273.5154223999707,275.41058739996515,275.41058739996515,275.41058739996515,1,1,275.41058739996515,275.9089914999786,0.9988071000552736,None,,,,,,,,Liu_Teng_ZB216,001,2024-02-27_15h37.26.589,stroop-master,2023.1.3,60.15424752654399,
2,綠,red,紅,0,1,1,4,0,4,0,0,2,2,11,,,,,,,,,,,,13,275.9089914999786,276.00904159998754,276.00904159998754,277.9037291999557,277.9037291999557,277.9037291999557,2,0,277.9037291999557,278.402827999962,0.7660686000599526,None,,,,,,,,Liu_Teng_ZB216,001,2024-02-27_15h37.26.589,stroop-master,2023.1.3,60.15424752654399,
4,綠,yellow,藍,0,0,2,4,0,4,0,0,3,3,6,,,,,,,,,,,,43,278.402827999962,278.5027607999509,278.5027607999509,280.39752919995226,280.39752919995226,280.39752919995226,2,1,280.39752919995226,280.8963596999529,1.2513365000486374,None,,,,,,,,Liu_Teng_ZB216,001,2024-02-27_15h37.26.589,stroop-master,2023.1.3,60.15424752654399,
2,綠,red,紅,0,1,1,4,0,4,0,0,4,4,7,,,,,,,,,,,,9,280.8963596999529,280.996007299982,280.996007299982,282.8909397999523,282.8909397999523,282.8909397999523,1,1,282.8909397999523,283.38964219996706,0.685252700059209,None,,,,,,,,Liu_Teng_ZB216,001,2024-02-27_15h37.26.589,stroop-master,2023.1.3,60.15424752654399,
2,藍,red,紅,0,1,1,4,0,4,0,0,5,5,8,,,,,,,,,,,,52,283.38964219996706,283.48949819995323,283.48949819995323,285.3844403999974,285.3844403999974,285.3844403999974,1,1,285.3844403999974,285.88318389997585,0.5586711000651121,None,,,,,,,,Liu_Teng_ZB216,001,2024-02-27_15h37.26.589,stroop-master,2023.1.3,60.15424752654399,
4,紅,green,紅,0,0,2,4,0,4,0,0,6,6,9,,,,,,,,,,,,62,285.88318389997585,285.9829095999594,285.9829095999594,287.87767539999913,287.87767539999913,287.87767539999913,2,1,287.87767539999913,288.3765453999513,0.7723140000598505,None,,,,,,,,Liu_Teng_ZB216,001,2024-02-27_15h37.26.589,stroop-master,2023.1.3,60.15424752654399,
4,藍,green,紅,0,0,2,4,0,4,0,0,7,7,3,,,,,,,,,,,,13,288.3765453999513,288.4763991999789,288.4763991999789,290.3715237999568,290.3715237999568,290.3715237999568,2,1,290.3715237999568,290.869938799995,0.8340189000591636,None,,,,,,,,Liu_Teng_ZB216,001,2024-02-27_15h37.26.589,stroop-master,2023.1.3,60.15424752654399,
2,黃,red,紅,0,1,1,4,0,4,0,0,8,8,10,,,,,,,,,,,,7,290.869938799995,290.96945699997013,290.96945699997013,292.8643297999515,292.8643297999515,292.8643297999515,None,0,292.8643297999515,293.36310409998987,,,,,,,,,,Liu_Teng_ZB216,001,2024-02-27_15h37.26.589,stroop-master,2023.1.3,60.15424752654399,
4,黃,blue,黃,0,0,2,4,0,4,0,0,9,9,0,,,,,,,,,,,,34,293.36310409998987,293.4632465999457,293.4632465999457,295.35792959999526,295.35792959999526,295.35792959999526,2,1,295.35792959999526,295.856925399974,0.846496400074102,None,,,,,,,,Liu_Teng_ZB216,001,2024-02-27_15h37.26.589,stroop-master,2023.1.3,60.15424752654399,
4,黃,green,紅,0,0,2,4,0,4,0,0,10,10,5,,,,,,,,,,,,10,295.856925399974,295.9563667999464,295.9563667999464,297.85176129994215,297.85176129994215,297.85176129994215,2,1,297.85176129994215,298.35018409998156,0.7497874000109732,None,,,,,,,,Liu_Teng_ZB216,001,2024-02-27_15h37.26.589,stroop-master,2023.1.3,60.15424752654399,
4,藍,red,藍,0,0,2,4,0,4,0,0,11,11,1,,,,,,,,,,,,13,298.35018409998156,298.4501648999867,298.4501648999867,300.3451948999427,300.3451948999427,300.3451948999427,2,1,,,0.9361695000552572,None,,,,,,,,Liu_Teng_ZB216,001,2024-02-27_15h37.26.589,stroop-master,2023.1.3,60.15424752654399,
,,,,,,,4,0,4,0,,,,,,,,,,,,,,,,,,,,,,,,,,,,,300.3451948999427,330.30013319995487,,,,,,Liu_Teng_ZB216,001,2024-02-27_15h37.26.589,stroop-master,2023.1.3,60.15424752654399,
2,紅,yellow,黃,0,1,1,5,0,5,0,0,0,0,1,,,,,,,,330.30013319995487,332.29442449996714,332.29442449996714,332.80845519999275,36,332.80845519999275,332.89299349999055,332.89299349999055,334.78790659998776,334.78790659998776,334.78790659998776,1,1,334.78790659998776,335.28644249995705,1.1904986000154167,None,,,,,,,,Liu_Teng_ZB216,001,2024-02-27_15h37.26.589,stroop-master,2023.1.3,60.15424752654399,
4,綠,yellow,綠,0,0,2,5,0,5,0,0,1,1,7,,,,,,,,,,,,5,335.28644249995705,335.3865833999589,335.3865833999589,337.2812869999907,337.2812869999907,337.2812869999907,2,1,337.2812869999907,337.7803933999967,0.9144874000339769,None,,,,,,,,Liu_Teng_ZB216,001,2024-02-27_15h37.26.589,stroop-master,2023.1.3,60.15424752654399,
2,紅,green,綠,0,1,1,5,0,5,0,0,2,2,6,,,,,,,,,,,,47,337.7803933999967,337.8796983999782,337.8796983999782,339.7749853999703,339.7749853999703,339.7749853999703,2,0,339.7749853999703,340.2733194999746,0.9962904000421986,None,,,,,,,,Liu_Teng_ZB216,001,2024-02-27_15h37.26.589,stroop-master,2023.1.3,60.15424752654399,
2,紅,blue,藍,0,1,1,5,0,5,0,0,3,3,3,,,,,,,,,,,,4,340.2733194999746,340.37316319998354,340.37316319998354,342.26860179996584,342.26860179996584,342.26860179996584,1,1,342.26860179996584,342.767136999988,0.8409496000385843,None,,,,,,,,Liu_Teng_ZB216,001,2024-02-27_15h37.26.589,stroop-master,2023.1.3,60.15424752654399,
2,藍,red,紅,0,1,1,5,0,5,0,0,4,4,11,,,,,,,,,,,,54,342.767136999988,342.86702849995345,342.86702849995345,344.76197109994246,344.76197109994246,344.76197109994246,1,1,344.76197109994246,345.2603389999713,0.5995617000735365,None,,,,,,,,Liu_Teng_ZB216,001,2024-02-27_15h37.26.589,stroop-master,2023.1.3,60.15424752654399,
4,黃,green,黃,0,0,2,5,0,5,0,0,5,5,4,,,,,,,,,,,,13,345.2603389999713,345.360368499998,345.360368499998,347.2553667999455,347.2553667999455,347.2553667999455,2,1,347.2553667999455,347.7537385999458,0.7445775000960566,None,,,,,,,,Liu_Teng_ZB216,001,2024-02-27_15h37.26.589,stroop-master,2023.1.3,60.15424752654399,
4,藍,red,黃,0,0,2,5,0,5,0,0,6,6,8,,,,,,,,,,,,6,347.7537385999458,347.853822199977,347.853822199977,349.7485024999478,349.7485024999478,349.7485024999478,2,1,349.7485024999478,350.2472724999534,0.8538677000324242,None,,,,,,,,Liu_Teng_ZB216,001,2024-02-27_15h37.26.589,stroop-master,2023.1.3,60.15424752654399,
4,紅,yellow,綠,0,0,2,5,0,5,0,0,7,7,10,,,,,,,,,,,,63,350.2472724999534,350.3470213999972,350.3470213999972,352.24225099995965,352.24225099995965,352.24225099995965,2,1,352.24225099995965,352.74096379999537,1.344973400060553,None,,,,,,,,Liu_Teng_ZB216,001,2024-02-27_15h37.26.589,stroop-master,2023.1.3,60.15424752654399,
2,黃,green,綠,0,1,1,5,0,5,0,0,8,8,9,,,,,,,,,,,,38,352.74096379999537,352.8401701999828,352.8401701999828,354.73571089998586,354.73571089998586,354.73571089998586,1,1,354.73571089998586,355.2341029999661,0.696076400054153,None,,,,,,,,Liu_Teng_ZB216,001,2024-02-27_15h37.26.589,stroop-master,2023.1.3,60.15424752654399,
4,黃,red,黃,0,0,2,5,0,5,0,0,9,9,2,,,,,,,,,,,,12,355.2341029999661,355.3342968999641,355.3342968999641,357.2288959999569,357.2288959999569,357.2288959999569,2,1,357.2288959999569,357.72793339996133,0.7421543000382371,None,,,,,,,,Liu_Teng_ZB216,001,2024-02-27_15h37.26.589,stroop-master,2023.1.3,60.15424752654399,
2,綠,red,紅,0,1,1,5,0,5,0,0,10,10,5,,,,,,,,,,,,33,357.72793339996133,357.8276643999852,357.8276643999852,359.72231019998435,359.72231019998435,359.72231019998435,1,1,359.72231019998435,360.22121839999454,0.8176504000439309,None,,,,,,,,Liu_Teng_ZB216,001,2024-02-27_15h37.26.589,stroop-master,2023.1.3,60.15424752654399,
4,紅,green,黃,0,0,2,5,0,5,0,0,11,11,0,,,,,,,,,,,,7,360.22121839999454,360.3208074999857,360.3208074999857,362.21637679997366,362.21637679997366,362.21637679997366,2,1,,,0.8589979000389576,None,,,,,,,,Liu_Teng_ZB216,001,2024-02-27_15h37.26.589,stroop-master,2023.1.3,60.15424752654399,
,,,,,,,5,0,5,0,,,,,,,,,,,,,,,,,,,,,,,,,,,,,362.21637679997366,392.1705808999832,,,,,,Liu_Teng_ZB216,001,2024-02-27_15h37.26.589,stroop-master,2023.1.3,60.15424752654399,
6,的,red,黃,0,0,2,6,0,6,0,0,0,0,10,,,,,,,,392.1705808999832,394.1657764999545,394.1657764999545,394.6814640999655,65,394.6814640999655,394.7640389999724,394.7640389999724,396.65884519997053,396.65884519997053,396.65884519997053,2,1,396.65884519997053,397.1574234999716,0.8083185000577942,None,,,,,,,,Liu_Teng_ZB216,001,2024-02-27_15h37.26.589,stroop-master,2023.1.3,60.15424752654399,
6,並,yellow,紅,0,0,2,6,0,6,0,0,1,1,1,,,,,,,,,,,,83,397.1574234999716,397.2572540999972,397.2572540999972,399.152267599944,399.152267599944,399.152267599944,2,1,399.152267599944,399.6511255999794,0.7542453000787646,None,,,,,,,,Liu_Teng_ZB216,001,2024-02-27_15h37.26.589,stroop-master,2023.1.3,60.15424752654399,
5,個,yellow,黃,0,1,1,6,0,6,0,0,2,2,9,,,,,,,,,,,,90,399.6511255999794,399.75059729994973,399.75059729994973,401.64565919997403,401.64565919997403,401.64565919997403,1,1,401.64565919997403,402.1446804999723,1.0283530000597239,None,,,,,,,,Liu_Teng_ZB216,001,2024-02-27_15h37.26.589,stroop-master,2023.1.3,60.15424752654399,
6,並,red,黃,0,0,2,6,0,6,0,0,3,3,2,,,,,,,,,,,,124,402.1446804999723,402.24432419997174,402.24432419997174,404.1392528999713,404.1392528999713,404.1392528999713,2,1,404.1392528999713,404.6378387999721,0.7911651000613347,None,,,,,,,,Liu_Teng_ZB216,001,2024-02-27_15h37.26.589,stroop-master,2023.1.3,60.15424752654399,
6,到,yellow,紅,0,0,2,6,0,6,0,0,4,4,7,,,,,,,,,,,,68,404.6378387999721,404.7379425999825,404.7379425999825,406.6326518999995,406.6326518999995,406.6326518999995,2,1,406.6326518999995,407.1315788999782,0.9720892000477761,None,,,,,,,,Liu_Teng_ZB216,001,2024-02-27_15h37.26.589,stroop-master,2023.1.3,60.15424752654399,
5,到,blue,藍,0,1,1,6,0,6,0,0,5,5,8,,,,,,,,,,,,117,407.1315788999782,407.2309912999626,407.2309912999626,409.12638529995456,409.12638529995456,409.12638529995456,1,1,409.12638529995456,409.62508729996625,0.605081700021401,None,,,,,,,,Liu_Teng_ZB216,001,2024-02-27_15h37.26.589,stroop-master,2023.1.3,60.15424752654399,
6,個,blue,黃,0,0,2,6,0,6,0,0,6,6,5,,,,,,,,,,,,67,409.62508729996625,409.7249303999706,409.7249303999706,411.6197160999873,411.6197160999873,411.6197160999873,2,1,411.6197160999873,412.1186357999686,0.6870964000700042,None,,,,,,,,Liu_Teng_ZB216,001,2024-02-27_15h37.26.589,stroop-master,2023.1.3,60.15424752654399,
5,並,green,綠,0,1,1,6,0,6,0,0,7,7,6,,,,,,,,,,,,95,412.1186357999686,412.21830489998683,412.21830489998683,414.113038499956,414.113038499956,414.113038499956,1,1,414.113038499956,414.6119386999635,0.6825385000556707,None,,,,,,,,Liu_Teng_ZB216,001,2024-02-27_15h37.26.589,stroop-master,2023.1.3,60.15424752654399,
5,到,red,紅,0,1,1,6,0,6,0,0,8,8,4,,,,,,,,,,,,69,414.6119386999635,414.7117726999568,414.7117726999568,416.6067299999995,416.6067299999995,416.6067299999995,1,1,416.6067299999995,417.105111199955,0.7823568000458181,None,,,,,,,,Liu_Teng_ZB216,001,2024-02-27_15h37.26.589,stroop-master,2023.1.3,60.15424752654399,
6,個,green,黃,0,0,2,6,0,6,0,0,9,9,3,,,,,,,,,,,,78,417.105111199955,417.20497039996553,417.20497039996553,419.0998447999591,419.0998447999591,419.0998447999591,2,1,419.0998447999591,419.59886179998284,0.7242554000695236,None,,,,,,,,Liu_Teng_ZB216,001,2024-02-27_15h37.26.589,stroop-master,2023.1.3,60.15424752654399,
5,的,red,紅,0,1,1,6,0,6,0,0,10,10,11,,,,,,,,,,,,114,419.59886179998284,419.69863439997425,419.69863439997425,421.5934919999563,421.5934919999563,421.5934919999563,1,1,421.5934919999563,422.0922545999638,0.6329382000258192,None,,,,,,,,Liu_Teng_ZB216,001,2024-02-27_15h37.26.589,stroop-master,2023.1.3,60.15424752654399,
5,並,blue,藍,0,1,1,6,0,6,0,0,11,11,0,,,,,,,,,,,,72,422.0922545999638,422.19219439994777,422.19219439994777,424.0871844999492,424.0871844999492,424.0871844999492,1,1,,,0.5318519001011737,None,,,,,,,,Liu_Teng_ZB216,001,2024-02-27_15h37.26.589,stroop-master,2023.1.3,60.15424752654399,
,,,,,,,6,0,6,0,,,,,,,,,,,,,,,,,,,,,,,,,,,,,424.0871844999492,454.04204749997007,,,,,,Liu_Teng_ZB216,001,2024-02-27_15h37.26.589,stroop-master,2023.1.3,60.15424752654399,
6,的,blue,紅,0,0,2,7,0,7,0,0,0,0,7,,,,,,,,454.04204749997007,456.0364526999765,456.0364526999765,456.55114509997657,109,456.55114509997657,456.6351076999563,456.6351076999563,458.52978289994644,458.52978289994644,458.52978289994644,2,1,458.52978289994644,459.02872549998574,0.7147670000558719,None,,,,,,,,Liu_Teng_ZB216,001,2024-02-27_15h37.26.589,stroop-master,2023.1.3,60.15424752654399,
6,的,red,綠,0,0,2,7,0,7,0,0,1,1,9,,,,,,,,,,,,105,459.02872549998574,459.1284109999542,459.1284109999542,461.0235318999621,461.0235318999621,461.0235318999621,2,1,461.0235318999621,461.5223151999526,0.7463259000796825,None,,,,,,,,Liu_Teng_ZB216,001,2024-02-27_15h37.26.589,stroop-master,2023.1.3,60.15424752654399,
6,並,yellow,綠,0,0,2,7,0,7,0,0,2,2,3,,,,,,,,,,,,67,461.5223151999526,461.62215439998545,461.62215439998545,463.5167651999509,463.5167651999509,463.5167651999509,2,1,463.5167651999509,464.0152099999832,0.7160468000220135,None,,,,,,,,Liu_Teng_ZB216,001,2024-02-27_15h37.26.589,stroop-master,2023.1.3,60.15424752654399,
5,的,red,紅,0,1,1,7,0,7,0,0,3,3,5,,,,,,,,,,,,85,464.0152099999832,464.1155489999801,464.1155489999801,466.0104574999423,466.0104574999423,466.0104574999423,1,1,466.0104574999423,466.50876809994224,0.5652939000283368,None,,,,,,,,Liu_Teng_ZB216,001,2024-02-27_15h37.26.589,stroop-master,2023.1.3,60.15424752654399,
5,並,yellow,黃,0,1,1,7,0,7,0,0,4,4,6,,,,,,,,,,,,71,466.50876809994224,466.60891999996966,466.60891999996966,468.5039066999452,468.5039066999452,468.5039066999452,1,1,468.5039066999452,469.002288699965,0.5933318000752479,None,,,,,,,,Liu_Teng_ZB216,001,2024-02-27_15h37.26.589,stroop-master,2023.1.3,60.15424752654399,
6,的,yellow,綠,0,0,2,7,0,7,0,0,5,5,0,,,,,,,,,,,,72,469.002288699965,469.1024187999428,469.1024187999428,470.9973176999483,470.9973176999483,470.9973176999483,2,1,470.9973176999483,471.49576139997225,0.6125909000984393,None,,,,,,,,Liu_Teng_ZB216,001,2024-02-27_15h37.26.589,stroop-master,2023.1.3,60.15424752654399,
5,到,green,綠,0,1,1,7,0,7,0,0,6,6,8,,,,,,,,,,,,66,471.49576139997225,471.5956865999615,471.5956865999615,473.4909321999876,473.4909321999876,473.4909321999876,1,1,473.4909321999876,473.98943299998064,0.6124077000422403,None,,,,,,,,Liu_Teng_ZB216,001,2024-02-27_15h37.26.589,stroop-master,2023.1.3,60.15424752654399,
6,的,blue,黃,0,0,2,7,0,7,0,0,7,7,1,,,,,,,,,,,,104,473.98943299998064,474.08943299995735,474.08943299995735,475.98404159996426,475.98404159996426,475.98404159996426,2,1,475.98404159996426,476.4830737999873,0.6260219000396319,None,,,,,,,,Liu_Teng_ZB216,001,2024-02-27_15h37.26.589,stroop-master,2023.1.3,60.15424752654399,
5,並,green,綠,0,1,1,7,0,7,0,0,8,8,2,,,,,,,,,,,,71,476.4830737999873,476.5827201999491,476.5827201999491,478.47746869997354,478.47746869997354,478.47746869997354,1,1,478.47746869997354,478.9763523999718,0.6163879000814632,None,,,,,,,,Liu_Teng_ZB216,001,2024-02-27_15h37.26.589,stroop-master,2023.1.3,60.15424752654399,
6,並,blue,黃,0,0,2,7,0,7,0,0,9,9,10,,,,,,,,,,,,115,478.9763523999718,479.07624499994563,479.07624499994563,480.9711814999464,480.9711814999464,480.9711814999464,2,1,480.9711814999464,481.4700673999614,0.7213492000591941,None,,,,,,,,Liu_Teng_ZB216,001,2024-02-27_15h37.26.589,stroop-master,2023.1.3,60.15424752654399,
5,到,green,綠,0,1,1,7,0,7,0,0,10,10,4,,,,,,,,,,,,81,481.4700673999614,481.5695266999537,481.5695266999537,483.4645875999704,483.4645875999704,483.4645875999704,1,1,483.4645875999704,483.9632996,0.6486365000600927,None,,,,,,,,Liu_Teng_ZB216,001,2024-02-27_15h37.26.589,stroop-master,2023.1.3,60.15424752654399,
5,到,green,綠,0,1,1,7,0,7,0,0,11,11,11,,,,,,,,,,,,71,483.9632996,484.06300309998915,484.06300309998915,485.95827999996254,485.95827999996254,485.95827999996254,1,1,,,0.6265445000026375,None,,,,,,,,Liu_Teng_ZB216,001,2024-02-27_15h37.26.589,stroop-master,2023.1.3,60.15424752654399,
,,,,,,,7,0,7,0,,,,,,,,,,,,,,,,,,,,,,,,,,,,,485.95827999996254,515.9129261999624,,,,,,Liu_Teng_ZB216,001,2024-02-27_15h37.26.589,stroop-master,2023.1.3,60.15424752654399,
6,並,green,藍,0,0,2,8,0,8,0,0,0,0,4,,,,,,,,515.9129261999624,517.9075083999778,517.9075083999778,518.4215947999619,75,518.4215947999619,518.5060390999424,518.5060390999424,520.4007678999915,520.4007678999915,520.4007678999915,2,1,520.4007678999915,520.8994576999685,0.7782142000505701,None,,,,,,,,Liu_Teng_ZB216,001,2024-02-27_15h37.26.589,stroop-master,2023.1.3,60.15424752654399,
5,的,green,綠,0,1,1,8,0,8,0,0,1,1,0,,,,,,,,,,,,122,520.8994576999685,520.9992685999605,520.9992685999605,522.8944463999942,522.8944463999942,522.8944463999942,1,1,522.8944463999942,523.3928336999961,0.5481243000831455,None,,,,,,,,Liu_Teng_ZB216,001,2024-02-27_15h37.26.589,stroop-master,2023.1.3,60.15424752654399,
5,個,red,紅,0,1,1,8,0,8,0,0,2,2,10,,,,,,,,,,,,106,523.3928336999961,523.4926240999484,523.4926240999484,525.3873084999504,525.3873084999504,525.3873084999504,1,1,525.3873084999504,525.8860518999863,0.5776932000881061,None,,,,,,,,Liu_Teng_ZB216,001,2024-02-27_15h37.26.589,stroop-master,2023.1.3,60.15424752654399,
6,到,red,綠,0,0,2,8,0,8,0,0,3,3,8,,,,,,,,,,,,78,525.8860518999863,525.9859008999774,525.9859008999774,527.8806771999807,527.8806771999807,527.8806771999807,2,1,527.8806771999807,528.3793889999506,0.6607126000453718,None,,,,,,,,Liu_Teng_ZB216,001,2024-02-27_15h37.26.589,stroop-master,2023.1.3,60.15424752654399,
6,個,green,紅,0,0,2,8,0,8,0,0,4,4,1,,,,,,,,,,,,87,528.3793889999506,528.4790853999439,528.4790853999439,530.3741695999634,530.3741695999634,530.3741695999634,2,1,530.3741695999634,530.8728854999645,0.8066713000880554,None,,,,,,,,Liu_Teng_ZB216,001,2024-02-27_15h37.26.589,stroop-master,2023.1.3,60.15424752654399,
6,個,red,黃,0,0,2,8,0,8,0,0,5,5,7,,,,,,,,,,,,73,530.8728854999645,530.9726023999974,530.9726023999974,532.8675209999783,532.8675209999783,532.8675209999783,2,1,532.8675209999783,533.3663907999871,0.7066886000684462,None,,,,,,,,Liu_Teng_ZB216,001,2024-02-27_15h37.26.589,stroop-master,2023.1.3,60.15424752654399,
5,的,blue,藍,0,1,1,8,0,8,0,0,6,6,5,,,,,,,,,,,,72,533.3663907999871,533.4661629999755,533.4661629999755,535.3611404999974,535.3611404999974,535.3611404999974,1,1,535.3611404999974,535.8597924999776,0.8641304000630043,None,,,,,,,,Liu_Teng_ZB216,001,2024-02-27_15h37.26.589,stroop-master,2023.1.3,60.15424752654399,
5,個,yellow,黃,0,1,1,8,0,8,0,0,7,7,3,,,,,,,,,,,,126,535.8597924999776,535.9594752999838,535.9594752999838,537.854593099968,537.854593099968,537.854593099968,1,1,537.854593099968,538.3533051999984,0.9528793000499718,None,,,,,,,,Liu_Teng_ZB216,001,2024-02-27_15h37.26.589,stroop-master,2023.1.3,60.15424752654399,
6,到,yellow,藍,0,0,2,8,0,8,0,0,8,8,9,,,,,,,,,,,,103,538.3533051999984,538.4530448999722,538.4530448999722,540.3479957999662,540.3479957999662,540.3479957999662,2,1,540.3479957999662,540.846834899974,0.6976755000650883,None,,,,,,,,Liu_Teng_ZB216,001,2024-02-27_15h37.26.589,stroop-master,2023.1.3,60.15424752654399,
6,的,blue,綠,0,0,2,8,0,8,0,0,9,9,2,,,,,,,,,,,,96,540.846834899974,540.9463587999926,540.9463587999926,542.8414934999892,542.8414934999892,542.8414934999892,2,1,542.8414934999892,543.3400572999963,0.9282464000862092,None,,,,,,,,Liu_Teng_ZB216,001,2024-02-27_15h37.26.589,stroop-master,2023.1.3,60.15424752654399,
5,個,green,綠,0,1,1,8,0,8,0,0,10,10,11,,,,,,,,,,,,76,543.3400572999963,543.439956999966,543.439956999966,545.3349031999824,545.3349031999824,545.3349031999824,1,1,545.3349031999824,545.8336696999613,0.6895565000595525,None,,,,,,,,Liu_Teng_ZB216,001,2024-02-27_15h37.26.589,stroop-master,2023.1.3,60.15424752654399,
5,的,red,紅,0,1,1,8,0,8,0,0,11,11,6,,,,,,,,,,,,79,545.8336696999613,545.9334294999717,545.9334294999717,547.8283621999435,547.8283621999435,547.8283621999435,1,1,,,0.5674007000634447,None,,,,,,,,Liu_Teng_ZB216,001,2024-02-27_15h37.26.589,stroop-master,2023.1.3,60.15424752654399,
,,,,,,,8,0,8,0,,,,,,,,,,,,,,,,,,,,,,,,,,,,,547.8283621999435,577.783222399943,,,,,,Liu_Teng_ZB216,001,2024-02-27_15h37.26.589,stroop-master,2023.1.3,60.15424752654399,
,,,,,,,,,,,,,,,,,,,,,,,,,,,,,,,,,,,,,,,,,577.783222399943,577.783222399943,q,4.603897900087759,None,Liu_Teng_ZB216,001,2024-02-27_15h37.26.589,stroop-master,2023.1.3,60.15424752654399,
