cond,topText,topColour,bottomText,congruent,match,corrAns,block.thisRepN,block.thisTrialN,block.thisN,block.thisIndex,trials.thisRepN,trials.thisTrialN,trials.thisN,trials.thisIndex,trigger_txt.started,trigger_resp.started,trigger_resp.keys,trigger_resp.rt,trigger_resp.duration,instr_txt.started,prepared_resp.started,prep_instr.started,prep_instr.stopped,start_indicator.started,start_indicator.stopped,use_rows,top_txt.started,bottom_txt.started,key_resp.started,top_txt.stopped,bottom_txt.stopped,key_resp.stopped,key_resp.keys,key_resp.corr,key_resp.rt,key_resp.duration,trial_fixation.started,trial_fixation.stopped,rest_txt.started,rest_txt.stopped,end_txt.started,end_key_resp.started,end_key_resp.keys,end_key_resp.rt,end_key_resp.duration,participant,session,date,expName,psychopyVersion,frameRate,
,,,,,,,,,,,,,,,18.343617199978326,18.343617199978326,s,2.9141429000301287,None,,,,,,,,,,,,,,,,,,,,,,,,,,,Sabrina_ZB216,001,2024-02-27_17h13.56.023,stroop-master,2023.1.3,60.154717943159035,
3,紅,red,藍,1,0,2,0,0,0,0,0,0,0,9,,,,,,21.285727599984966,21.285727599984966,22.199781899980735,24.194534500013106,24.194534500013106,24.720667199988384,25,24.720667199988384,24.79315649997443,24.79315649997443,26.687978499976452,26.687978499976452,26.687978499976452,2,1,0.9093085000058636,None,26.687978499976452,27.186562300019432,,,,,,,,Sabrina_ZB216,001,2024-02-27_17h13.56.023,stroop-master,2023.1.3,60.154717943159035,
1,綠,green,綠,1,1,1,0,0,0,0,0,1,1,7,,,,,,,,,,,,18,27.186562300019432,27.286503400013316,27.286503400013316,29.181541400030255,29.181541400030255,29.181541400030255,1,1,0.9102855000528507,None,29.181541400030255,29.68031600001268,,,,,,,,Sabrina_ZB216,001,2024-02-27_17h13.56.023,stroop-master,2023.1.3,60.154717943159035,
3,紅,red,綠,1,0,2,0,0,0,0,0,2,2,1,,,,,,,,,,,,17,29.68031600001268,29.78006610000739,29.78006610000739,31.674892099981662,31.674892099981662,31.674892099981662,2,1,0.6411879999795929,None,31.674892099981662,32.17344990000129,,,,,,,,Sabrina_ZB216,001,2024-02-27_17h13.56.023,stroop-master,2023.1.3,60.154717943159035,
1,藍,blue,藍,1,1,1,0,0,0,0,0,3,3,3,,,,,,,,,,,,1,32.17344990000129,32.27319229999557,32.27319229999557,34.16839599999366,34.16839599999366,34.16839599999366,1,1,0.6513741000089794,None,34.16839599999366,34.667065599991474,,,,,,,,Sabrina_ZB216,001,2024-02-27_17h13.56.023,stroop-master,2023.1.3,60.154717943159035,
3,黃,yellow,藍,1,0,2,0,0,0,0,0,4,4,5,,,,,,,,,,,,26,34.667065599991474,34.76670320000267,34.76670320000267,36.66188000002876,36.66188000002876,36.66188000002876,2,1,1.0951620999840088,None,36.66188000002876,37.160770800022874,,,,,,,,Sabrina_ZB216,001,2024-02-27_17h13.56.023,stroop-master,2023.1.3,60.154717943159035,
1,藍,blue,藍,1,1,1,0,0,0,0,0,5,5,8,,,,,,,,,,,,23,37.160770800022874,37.26032489998033,37.26032489998033,39.155313799972646,39.155313799972646,39.155313799972646,1,1,0.8567665999871679,None,39.155313799972646,39.65395790000912,,,,,,,,Sabrina_ZB216,001,2024-02-27_17h13.56.023,stroop-master,2023.1.3,60.154717943159035,
1,藍,blue,藍,1,1,1,0,0,0,0,0,6,6,6,,,,,,,,,,,,1,39.65395790000912,39.753749799972866,39.753749799972866,41.64887929998804,41.64887929998804,41.64887929998804,1,1,0.6762939000036567,None,41.64887929998804,42.14738430001307,,,,,,,,Sabrina_ZB216,001,2024-02-27_17h13.56.023,stroop-master,2023.1.3,60.154717943159035,
1,綠,green,綠,1,1,1,0,0,0,0,0,7,7,10,,,,,,,,,,,,3,42.14738430001307,42.24712229997385,42.24712229997385,44.142210700025316,44.142210700025316,44.142210700025316,1,1,0.5570466000353917,None,44.142210700025316,44.64090529998066,,,,,,,,Sabrina_ZB216,001,2024-02-27_17h13.56.023,stroop-master,2023.1.3,60.154717943159035,
3,綠,green,藍,1,0,2,0,0,0,0,0,8,8,4,,,,,,,,,,,,1,44.64090529998066,44.74063399998704,44.74063399998704,46.63564300001599,46.63564300001599,46.63564300001599,2,1,0.6444541999953799,None,46.63564300001599,47.134277699980885,,,,,,,,Sabrina_ZB216,001,2024-02-27_17h13.56.023,stroop-master,2023.1.3,60.154717943159035,
3,綠,green,紅,1,0,2,0,0,0,0,0,9,9,0,,,,,,,,,,,,16,47.134277699980885,47.23405259998981,47.23405259998981,49.12924069998553,49.12924069998553,49.12924069998553,2,1,1.0734975999803282,None,49.12924069998553,49.62799399998039,,,,,,,,Sabrina_ZB216,001,2024-02-27_17h13.56.023,stroop-master,2023.1.3,60.154717943159035,
3,紅,red,黃,1,0,2,0,0,0,0,0,10,10,2,,,,,,,,,,,,3,49.62799399998039,49.7277348000207,49.7277348000207,51.62259789998643,51.62259789998643,51.62259789998643,1,0,0.7563410000293516,None,51.62259789998643,52.121165700023994,,,,,,,,Sabrina_ZB216,001,2024-02-27_17h13.56.023,stroop-master,2023.1.3,60.154717943159035,
1,黃,yellow,黃,1,1,1,0,0,0,0,0,11,11,11,,,,,,,,,,,,2,52.121165700023994,52.22088849998545,52.22088849998545,54.116073000011966,54.116073000011966,54.116073000011966,1,1,0.9873848999850452,None,,,,,,,,,,Sabrina_ZB216,001,2024-02-27_17h13.56.023,stroop-master,2023.1.3,60.154717943159035,
,,,,,,,0,0,0,0,,,,,,,,,,,,,,,,,,,,,,,,,,,,,54.116073000011966,84.07067300000926,,,,,,Sabrina_ZB216,001,2024-02-27_17h13.56.023,stroop-master,2023.1.3,60.154717943159035,
6,個,red,藍,0,0,2,1,0,1,0,0,0,0,1,,,,,,,,84.07067300000926,86.0654927000287,86.0654927000287,86.58226180000929,70,86.58226180000929,86.66382399998838,86.66382399998838,88.55903220002074,88.55903220002074,88.55903220002074,2,1,1.1071730999974534,None,88.55903220002074,89.05770469998242,,,,,,,,Sabrina_ZB216,001,2024-02-27_17h13.56.023,stroop-master,2023.1.3,60.154717943159035,
5,到,green,綠,0,1,1,1,0,1,0,0,1,1,10,,,,,,,,,,,,125,89.05770469998242,89.15755790000549,89.15755790000549,91.05244040000252,91.05244040000252,91.05244040000252,1,1,0.6864576999796554,None,91.05244040000252,91.55102399998577,,,,,,,,Sabrina_ZB216,001,2024-02-27_17h13.56.023,stroop-master,2023.1.3,60.154717943159035,
5,並,red,紅,0,1,1,1,0,1,0,0,2,2,2,,,,,,,,,,,,64,91.55102399998577,91.65088799997466,91.65088799997466,93.54602469998645,93.54602469998645,93.54602469998645,1,1,1.2032397000002675,None,93.54602469998645,94.04451500001596,,,,,,,,Sabrina_ZB216,001,2024-02-27_17h13.56.023,stroop-master,2023.1.3,60.154717943159035,
6,的,yellow,紅,0,0,2,1,0,1,0,0,3,3,5,,,,,,,,,,,,73,94.04451500001596,94.14432000002125,94.14432000002125,96.03934120002668,96.03934120002668,96.03934120002668,2,1,1.2496699999901466,None,96.03934120002668,96.53807680000318,,,,,,,,Sabrina_ZB216,001,2024-02-27_17h13.56.023,stroop-master,2023.1.3,60.154717943159035,
6,個,yellow,藍,0,0,2,1,0,1,0,0,4,4,8,,,,,,,,,,,,97,96.53807680000318,96.63788090000162,96.63788090000162,98.5328647000133,98.5328647000133,98.5328647000133,2,1,1.2441349999862723,None,98.5328647000133,99.03155890002381,,,,,,,,Sabrina_ZB216,001,2024-02-27_17h13.56.023,stroop-master,2023.1.3,60.154717943159035,
5,的,blue,藍,0,1,1,1,0,1,0,0,5,5,3,,,,,,,,,,,,107,99.03155890002381,99.13126519997604,99.13126519997604,101.02636690001236,101.02636690001236,101.02636690001236,1,1,0.6279389000264928,None,101.02636690001236,101.5250485999859,,,,,,,,Sabrina_ZB216,001,2024-02-27_17h13.56.023,stroop-master,2023.1.3,60.154717943159035,
5,到,yellow,黃,0,1,1,1,0,1,0,0,6,6,0,,,,,,,,,,,,68,101.5250485999859,101.62489440001082,101.62489440001082,103.51981099997647,103.51981099997647,103.51981099997647,1,1,0.9922395000467077,None,103.51981099997647,104.01848460000474,,,,,,,,Sabrina_ZB216,001,2024-02-27_17h13.56.023,stroop-master,2023.1.3,60.154717943159035,
5,到,red,紅,0,1,1,1,0,1,0,0,7,7,6,,,,,,,,,,,,102,104.01848460000474,104.11813170003006,104.11813170003006,106.01323290000437,106.01323290000437,106.01323290000437,1,1,0.6685562999919057,None,106.01323290000437,106.51220410002861,,,,,,,,Sabrina_ZB216,001,2024-02-27_17h13.56.023,stroop-master,2023.1.3,60.154717943159035,
6,到,yellow,綠,0,0,2,1,0,1,0,0,8,8,4,,,,,,,,,,,,120,106.51220410002861,106.61144970002351,106.61144970002351,108.5067124000052,108.5067124000052,108.5067124000052,2,1,0.834846900019329,None,108.5067124000052,109.00525049999123,,,,,,,,Sabrina_ZB216,001,2024-02-27_17h13.56.023,stroop-master,2023.1.3,60.154717943159035,
6,個,yellow,紅,0,0,2,1,0,1,0,0,9,9,9,,,,,,,,,,,,119,109.00525049999123,109.10527589998674,109.10527589998674,111.00007040001219,111.00007040001219,111.00007040001219,2,1,1.0250628999783657,None,111.00007040001219,111.49927440000465,,,,,,,,Sabrina_ZB216,001,2024-02-27_17h13.56.023,stroop-master,2023.1.3,60.154717943159035,
5,的,red,紅,0,1,1,1,0,1,0,0,10,10,11,,,,,,,,,,,,71,111.49927440000465,111.59853030001977,111.59853030001977,113.49364170001354,113.49364170001354,113.49364170001354,1,1,0.6870812000124715,None,113.49364170001354,113.99220269999932,,,,,,,,Sabrina_ZB216,001,2024-02-27_17h13.56.023,stroop-master,2023.1.3,60.154717943159035,
6,到,red,黃,0,0,2,1,0,1,0,0,11,11,7,,,,,,,,,,,,72,113.99220269999932,114.09198349999497,114.09198349999497,115.98716010001954,115.98716010001954,115.98716010001954,2,1,1.3825553000206128,None,,,,,,,,,,Sabrina_ZB216,001,2024-02-27_17h13.56.023,stroop-master,2023.1.3,60.154717943159035,
,,,,,,,1,0,1,0,,,,,,,,,,,,,,,,,,,,,,,,,,,,,115.98716010001954,145.94341669999994,,,,,,Sabrina_ZB216,001,2024-02-27_17h13.56.023,stroop-master,2023.1.3,60.154717943159035,
6,個,blue,紅,0,0,2,2,0,2,0,0,0,0,9,,,,,,,,145.94341669999994,147.93695130001288,147.93695130001288,148.4511423999793,95,148.4511423999793,148.53558000002522,148.53558000002522,150.4299576000194,150.4299576000194,150.4299576000194,2,1,1.0049286999856122,None,150.4299576000194,150.92866350000259,,,,,,,,Sabrina_ZB216,001,2024-02-27_17h13.56.023,stroop-master,2023.1.3,60.154717943159035,
5,的,red,紅,0,1,1,2,0,2,0,0,1,1,10,,,,,,,,,,,,73,150.92866350000259,151.0284534000093,151.0284534000093,152.92347610002616,152.92347610002616,152.92347610002616,1,1,0.6195958000025712,None,152.92347610002616,153.42215870000655,,,,,,,,Sabrina_ZB216,001,2024-02-27_17h13.56.023,stroop-master,2023.1.3,60.154717943159035,
6,的,green,藍,0,0,2,2,0,2,0,0,2,2,8,,,,,,,,,,,,118,153.42215870000655,153.52190230000997,153.52190230000997,155.41678269999102,155.41678269999102,155.41678269999102,2,1,0.7898671999573708,None,155.41678269999102,155.9161185999983,,,,,,,,Sabrina_ZB216,001,2024-02-27_17h13.56.023,stroop-master,2023.1.3,60.154717943159035,
5,的,blue,藍,0,1,1,2,0,2,0,0,3,3,1,,,,,,,,,,,,64,155.9161185999983,156.0151812999975,156.0151812999975,157.91052739997394,157.91052739997394,157.91052739997394,1,1,0.5340383999864571,None,157.91052739997394,158.4089418000076,,,,,,,,Sabrina_ZB216,001,2024-02-27_17h13.56.023,stroop-master,2023.1.3,60.154717943159035,
6,個,blue,綠,0,0,2,2,0,2,0,0,4,4,2,,,,,,,,,,,,69,158.4089418000076,158.50877429998945,158.50877429998945,160.40385920001427,160.40385920001427,160.40385920001427,2,1,0.8854552999837324,None,160.40385920001427,160.90249579999363,,,,,,,,Sabrina_ZB216,001,2024-02-27_17h13.56.023,stroop-master,2023.1.3,60.154717943159035,
6,並,blue,綠,0,0,2,2,0,2,0,0,5,5,11,,,,,,,,,,,,69,160.90249579999363,161.002374099975,161.002374099975,162.89722430001711,162.89722430001711,162.89722430001711,2,1,1.303368299966678,None,162.89722430001711,163.3958144999924,,,,,,,,Sabrina_ZB216,001,2024-02-27_17h13.56.023,stroop-master,2023.1.3,60.154717943159035,
5,並,green,綠,0,1,1,2,0,2,0,0,6,6,6,,,,,,,,,,,,67,163.3958144999924,163.4956106999889,163.4956106999889,165.390820599976,165.390820599976,165.390820599976,1,1,0.767834700003732,None,165.390820599976,165.8895645000157,,,,,,,,Sabrina_ZB216,001,2024-02-27_17h13.56.023,stroop-master,2023.1.3,60.154717943159035,
6,到,blue,黃,0,0,2,2,0,2,0,0,7,7,7,,,,,,,,,,,,93,165.8895645000157,165.99121270002797,165.99121270002797,167.8841279000044,167.8841279000044,167.8841279000044,2,1,0.8317039999528788,None,167.8841279000044,168.38272059999872,,,,,,,,Sabrina_ZB216,001,2024-02-27_17h13.56.023,stroop-master,2023.1.3,60.154717943159035,
5,並,red,紅,0,1,1,2,0,2,0,0,8,8,3,,,,,,,,,,,,111,168.38272059999872,168.48269670002628,168.48269670002628,170.37765909999143,170.37765909999143,170.37765909999143,1,1,0.7823489000438713,None,170.37765909999143,170.8763129999861,,,,,,,,Sabrina_ZB216,001,2024-02-27_17h13.56.023,stroop-master,2023.1.3,60.154717943159035,
5,到,blue,藍,0,1,1,2,0,2,0,0,9,9,4,,,,,,,,,,,,116,170.8763129999861,170.97606580000138,170.97606580000138,172.8711146999849,172.8711146999849,172.8711146999849,1,1,0.7497605999815278,None,172.8711146999849,173.36987090000184,,,,,,,,Sabrina_ZB216,001,2024-02-27_17h13.56.023,stroop-master,2023.1.3,60.154717943159035,
5,到,blue,藍,0,1,1,2,0,2,0,0,10,10,5,,,,,,,,,,,,72,173.36987090000184,173.46961199998623,173.46961199998623,175.3644635999808,175.3644635999808,175.3644635999808,1,1,0.7773471000255086,None,175.3644635999808,175.86306579998927,,,,,,,,Sabrina_ZB216,001,2024-02-27_17h13.56.023,stroop-master,2023.1.3,60.154717943159035,
6,到,yellow,紅,0,0,2,2,0,2,0,0,11,11,0,,,,,,,,,,,,82,175.86306579998927,175.96285429998534,175.96285429998534,177.85822619998362,177.85822619998362,177.85822619998362,2,1,0.732863700017333,None,,,,,,,,,,Sabrina_ZB216,001,2024-02-27_17h13.56.023,stroop-master,2023.1.3,60.154717943159035,
,,,,,,,2,0,2,0,,,,,,,,,,,,,,,,,,,,,,,,,,,,,177.85822619998362,207.8126775000128,,,,,,Sabrina_ZB216,001,2024-02-27_17h13.56.023,stroop-master,2023.1.3,60.154717943159035,
2,紅,yellow,黃,0,1,1,3,0,3,0,0,0,0,10,,,,,,,,207.8126775000128,209.80741900001885,209.80741900001885,210.32184629997937,32,210.32184629997937,210.40604279999388,210.40604279999388,212.30080440000165,212.30080440000165,212.30080440000165,1,1,1.2569270000094548,None,212.30080440000165,212.79950490000192,,,,,,,,Sabrina_ZB216,001,2024-02-27_17h13.56.023,stroop-master,2023.1.3,60.154717943159035,
4,黃,green,紅,0,0,2,3,0,3,0,0,1,1,1,,,,,,,,,,,,52,212.79950490000192,212.89942189998692,212.89942189998692,214.7945620000246,214.7945620000246,214.7945620000246,2,1,0.6368238999857567,None,214.7945620000246,215.29299869999522,,,,,,,,Sabrina_ZB216,001,2024-02-27_17h13.56.023,stroop-master,2023.1.3,60.154717943159035,
2,藍,green,綠,0,1,1,3,0,3,0,0,2,2,8,,,,,,,,,,,,10,215.29299869999522,215.39266730000963,215.39266730000963,217.28780130000087,217.28780130000087,217.28780130000087,1,1,1.5280638999538496,None,217.28780130000087,217.78671630000463,,,,,,,,Sabrina_ZB216,001,2024-02-27_17h13.56.023,stroop-master,2023.1.3,60.154717943159035,
2,藍,yellow,黃,0,1,1,3,0,3,0,0,3,3,5,,,,,,,,,,,,33,217.78671630000463,217.88631319999695,217.88631319999695,219.78127719997428,219.78127719997428,219.78127719997428,1,1,0.6705045999842696,None,219.78127719997428,220.27994380000746,,,,,,,,Sabrina_ZB216,001,2024-02-27_17h13.56.023,stroop-master,2023.1.3,60.154717943159035,
4,紅,yellow,綠,0,0,2,3,0,3,0,0,4,4,3,,,,,,,,,,,,9,220.27994380000746,220.37978810002096,220.37978810002096,222.2748733999906,222.2748733999906,222.2748733999906,2,1,0.7889351999619976,None,222.2748733999906,222.7734259000281,,,,,,,,Sabrina_ZB216,001,2024-02-27_17h13.56.023,stroop-master,2023.1.3,60.154717943159035,
4,黃,blue,綠,0,0,2,3,0,3,0,0,5,5,7,,,,,,,,,,,,8,222.7734259000281,222.87325270002475,222.87325270002475,224.7682335000136,224.7682335000136,224.7682335000136,2,1,1.6379231000319123,None,224.7682335000136,225.26691000000574,,,,,,,,Sabrina_ZB216,001,2024-02-27_17h13.56.023,stroop-master,2023.1.3,60.154717943159035,
2,黃,red,紅,0,1,1,3,0,3,0,0,6,6,2,,,,,,,,,,,,61,225.26691000000574,225.36678510002093,225.36678510002093,227.2616287000128,227.2616287000128,227.2616287000128,1,1,1.1524716000421904,None,227.2616287000128,227.76038689998677,,,,,,,,Sabrina_ZB216,001,2024-02-27_17h13.56.023,stroop-master,2023.1.3,60.154717943159035,
4,黃,red,黃,0,0,2,3,0,3,0,0,7,7,9,,,,,,,,,,,,51,227.76038689998677,227.86002379999263,227.86002379999263,229.75517050002236,229.75517050002236,229.75517050002236,2,1,0.9601562999887392,None,229.75517050002236,230.2539236000157,,,,,,,,Sabrina_ZB216,001,2024-02-27_17h13.56.023,stroop-master,2023.1.3,60.154717943159035,
2,紅,green,綠,0,1,1,3,0,3,0,0,8,8,11,,,,,,,,,,,,9,230.2539236000157,230.35371699999087,230.35371699999087,232.24893699999666,232.24893699999666,232.24893699999666,1,1,0.6464318999787793,None,232.24893699999666,232.74806210002862,,,,,,,,Sabrina_ZB216,001,2024-02-27_17h13.56.023,stroop-master,2023.1.3,60.154717943159035,
2,藍,green,綠,0,1,1,3,0,3,0,0,9,9,4,,,,,,,,,,,,47,232.74806210002862,232.847711600014,232.847711600014,234.742460199981,234.742460199981,234.742460199981,1,1,0.5733766999910586,None,234.742460199981,235.24117310001748,,,,,,,,Sabrina_ZB216,001,2024-02-27_17h13.56.023,stroop-master,2023.1.3,60.154717943159035,
4,紅,yellow,藍,0,0,2,3,0,3,0,0,10,10,0,,,,,,,,,,,,5,235.24117310001748,235.34125040000072,235.34125040000072,237.23593470000196,237.23593470000196,237.23593470000196,2,1,1.0464896999765188,None,237.23593470000196,237.73495890002232,,,,,,,,Sabrina_ZB216,001,2024-02-27_17h13.56.023,stroop-master,2023.1.3,60.154717943159035,
4,綠,yellow,紅,0,0,2,3,0,3,0,0,11,11,6,,,,,,,,,,,,6,237.73495890002232,237.8343813000247,237.8343813000247,239.72972529998515,239.72972529998515,239.72972529998515,2,1,1.3022210000199266,None,,,,,,,,,,Sabrina_ZB216,001,2024-02-27_17h13.56.023,stroop-master,2023.1.3,60.154717943159035,
,,,,,,,3,0,3,0,,,,,,,,,,,,,,,,,,,,,,,,,,,,,239.72972529998515,269.6844868999906,,,,,,Sabrina_ZB216,001,2024-02-27_17h13.56.023,stroop-master,2023.1.3,60.154717943159035,
4,藍,green,紅,0,0,2,4,0,4,0,0,0,0,3,,,,,,,,269.6844868999906,271.6789736999781,271.6789736999781,272.19319989997894,14,272.19319989997894,272.27725619997364,272.27725619997364,274.17238250002265,274.17238250002265,274.17238250002265,2,1,1.0114546000258997,None,274.17238250002265,274.6713606999838,,,,,,,,Sabrina_ZB216,001,2024-02-27_17h13.56.023,stroop-master,2023.1.3,60.154717943159035,
2,綠,red,紅,0,1,1,4,0,4,0,0,1,1,8,,,,,,,,,,,,39,274.6713606999838,274.77127780002775,274.77127780002775,276.66621320002014,276.66621320002014,276.66621320002014,1,1,0.7420326000428759,None,276.66621320002014,277.1648781999829,,,,,,,,Sabrina_ZB216,001,2024-02-27_17h13.56.023,stroop-master,2023.1.3,60.154717943159035,
2,藍,yellow,黃,0,1,1,4,0,4,0,0,2,2,2,,,,,,,,,,,,8,277.1648781999829,277.26440889999503,277.26440889999503,279.159293100005,279.159293100005,279.159293100005,1,1,0.6390701999771409,None,279.159293100005,279.65794040000765,,,,,,,,Sabrina_ZB216,001,2024-02-27_17h13.56.023,stroop-master,2023.1.3,60.154717943159035,
4,藍,red,綠,0,0,2,4,0,4,0,0,3,3,1,,,,,,,,,,,,43,279.65794040000765,279.75809209997533,279.75809209997533,281.6530311999959,281.6530311999959,281.6530311999959,2,1,0.6946716000093147,None,281.6530311999959,282.1517442999757,,,,,,,,Sabrina_ZB216,001,2024-02-27_17h13.56.023,stroop-master,2023.1.3,60.154717943159035,
4,綠,red,黃,0,0,2,4,0,4,0,0,4,4,11,,,,,,,,,,,,62,282.1517442999757,282.2516132000019,282.2516132000019,284.14609070000006,284.14609070000006,284.14609070000006,2,1,0.7036230000085197,None,284.14609070000006,284.64516469999216,,,,,,,,Sabrina_ZB216,001,2024-02-27_17h13.56.023,stroop-master,2023.1.3,60.154717943159035,
4,綠,yellow,藍,0,0,2,4,0,4,0,0,5,5,4,,,,,,,,,,,,50,284.64516469999216,284.7449655000237,284.7449655000237,286.6399313000147,286.6399313000147,286.6399313000147,1,0,0.7263839000370353,None,286.6399313000147,287.1385672999895,,,,,,,,Sabrina_ZB216,001,2024-02-27_17h13.56.023,stroop-master,2023.1.3,60.154717943159035,
2,紅,yellow,黃,0,1,1,4,0,4,0,0,6,6,9,,,,,,,,,,,,63,287.1385672999895,287.23843199998373,287.23843199998373,289.1333912999835,289.1333912999835,289.1333912999835,2,0,0.8024978000321425,None,289.1333912999835,289.6320508000208,,,,,,,,Sabrina_ZB216,001,2024-02-27_17h13.56.023,stroop-master,2023.1.3,60.154717943159035,
4,黃,blue,黃,0,0,2,4,0,4,0,0,7,7,5,,,,,,,,,,,,5,289.6320508000208,289.73189009999624,289.73189009999624,291.62648680002894,291.62648680002894,291.62648680002894,2,1,0.830496700014919,None,291.62648680002894,292.1251518999925,,,,,,,,Sabrina_ZB216,001,2024-02-27_17h13.56.023,stroop-master,2023.1.3,60.154717943159035,
4,綠,yellow,綠,0,0,2,4,0,4,0,0,8,8,6,,,,,,,,,,,,13,292.1251518999925,292.22498960001394,292.22498960001394,294.12001060001785,294.12001060001785,294.12001060001785,2,1,0.7550493000308052,None,294.12001060001785,294.6189944000216,,,,,,,,Sabrina_ZB216,001,2024-02-27_17h13.56.023,stroop-master,2023.1.3,60.154717943159035,
2,紅,yellow,黃,0,1,1,4,0,4,0,0,9,9,7,,,,,,,,,,,,5,294.6189944000216,294.71893690002616,294.71893690002616,296.61339650000446,296.61339650000446,296.61339650000446,1,1,0.682714200054761,None,296.61339650000446,297.1124885000172,,,,,,,,Sabrina_ZB216,001,2024-02-27_17h13.56.023,stroop-master,2023.1.3,60.154717943159035,
2,綠,blue,藍,0,1,1,4,0,4,0,0,10,10,0,,,,,,,,,,,,13,297.1124885000172,297.21225510002114,297.21225510002114,299.10695159999887,299.10695159999887,299.10695159999887,2,0,1.0074356999830343,None,299.10695159999887,299.6055415000301,,,,,,,,Sabrina_ZB216,001,2024-02-27_17h13.56.023,stroop-master,2023.1.3,60.154717943159035,
2,綠,red,紅,0,1,1,4,0,4,0,0,11,11,10,,,,,,,,,,,,56,299.6055415000301,299.70528240001295,299.70528240001295,301.60033729998395,301.60033729998395,301.60033729998395,1,1,0.6291213000076823,None,,,,,,,,,,Sabrina_ZB216,001,2024-02-27_17h13.56.023,stroop-master,2023.1.3,60.154717943159035,
,,,,,,,4,0,4,0,,,,,,,,,,,,,,,,,,,,,,,,,,,,,301.60033729998395,331.55513210000936,,,,,,Sabrina_ZB216,001,2024-02-27_17h13.56.023,stroop-master,2023.1.3,60.154717943159035,
2,黃,green,綠,0,1,1,5,0,5,0,0,0,0,2,,,,,,,,331.55513210000936,333.5503437999869,333.5503437999869,334.0637246000115,30,334.0637246000115,334.1483733999776,334.1483733999776,336.0435574000003,336.0435574000003,336.0435574000003,1,1,0.9807964999927208,None,336.0435574000003,336.5424074999755,,,,,,,,Sabrina_ZB216,001,2024-02-27_17h13.56.023,stroop-master,2023.1.3,60.154717943159035,
2,黃,red,紅,0,1,1,5,0,5,0,0,1,1,9,,,,,,,,,,,,11,336.5424074999755,336.64207240001997,336.64207240001997,338.53715839999495,338.53715839999495,338.53715839999495,1,1,0.9129719999618828,None,338.53715839999495,339.03590670000995,,,,,,,,Sabrina_ZB216,001,2024-02-27_17h13.56.023,stroop-master,2023.1.3,60.154717943159035,
2,黃,blue,藍,0,1,1,5,0,5,0,0,2,2,6,,,,,,,,,,,,12,339.03590670000995,339.1352243000292,339.1352243000292,341.0306467000046,341.0306467000046,341.0306467000046,1,1,1.6916634000372142,None,341.0306467000046,341.52920879999874,,,,,,,,Sabrina_ZB216,001,2024-02-27_17h13.56.023,stroop-master,2023.1.3,60.154717943159035,
4,藍,yellow,紅,0,0,2,5,0,5,0,0,3,3,7,,,,,,,,,,,,12,341.52920879999874,341.62904510000953,341.62904510000953,343.5240059000207,343.5240059000207,343.5240059000207,2,1,0.728971799951978,None,343.5240059000207,344.02232920000097,,,,,,,,Sabrina_ZB216,001,2024-02-27_17h13.56.023,stroop-master,2023.1.3,60.154717943159035,
4,綠,red,綠,0,0,2,5,0,5,0,0,4,4,4,,,,,,,,,,,,57,344.02232920000097,344.12208529998315,344.12208529998315,346.01743599999463,346.01743599999463,346.01743599999463,2,1,0.9969054000102915,None,346.01743599999463,346.51618039997993,,,,,,,,Sabrina_ZB216,001,2024-02-27_17h13.56.023,stroop-master,2023.1.3,60.154717943159035,
4,紅,yellow,紅,0,0,2,5,0,5,0,0,5,5,11,,,,,,,,,,,,29,346.51618039997993,346.6160221999744,346.6160221999744,348.510859299975,348.510859299975,348.510859299975,2,1,0.8488857999909669,None,348.510859299975,349.0095737000229,,,,,,,,Sabrina_ZB216,001,2024-02-27_17h13.56.023,stroop-master,2023.1.3,60.154717943159035,
2,黃,green,綠,0,1,1,5,0,5,0,0,6,6,3,,,,,,,,,,,,11,349.0095737000229,349.1091200999799,349.1091200999799,351.00457849999657,351.00457849999657,351.00457849999657,1,1,1.0231480000074953,None,351.00457849999657,351.50305780000053,,,,,,,,Sabrina_ZB216,001,2024-02-27_17h13.56.023,stroop-master,2023.1.3,60.154717943159035,
4,紅,blue,綠,0,0,2,5,0,5,0,0,7,7,0,,,,,,,,,,,,40,351.50305780000053,351.60254499997245,351.60254499997245,353.4974394000019,353.4974394000019,353.4974394000019,2,1,1.2289572000154294,None,353.4974394000019,353.9961537999916,,,,,,,,Sabrina_ZB216,001,2024-02-27_17h13.56.023,stroop-master,2023.1.3,60.154717943159035,
2,黃,blue,藍,0,1,1,5,0,5,0,0,8,8,1,,,,,,,,,,,,58,353.9961537999916,354.09585280000465,354.09585280000465,355.99090049997903,355.99090049997903,355.99090049997903,1,1,0.7377772000036202,None,355.99090049997903,356.49005309998756,,,,,,,,Sabrina_ZB216,001,2024-02-27_17h13.56.023,stroop-master,2023.1.3,60.154717943159035,
2,紅,blue,藍,0,1,1,5,0,5,0,0,9,9,10,,,,,,,,,,,,10,356.49005309998756,356.58976439997787,356.58976439997787,358.48477300000377,358.48477300000377,358.48477300000377,1,1,0.6483619000064209,None,358.48477300000377,358.9831605000072,,,,,,,,Sabrina_ZB216,001,2024-02-27_17h13.56.023,stroop-master,2023.1.3,60.154717943159035,
4,紅,blue,黃,0,0,2,5,0,5,0,0,10,10,5,,,,,,,,,,,,4,358.9831605000072,359.08335189998616,359.08335189998616,360.9778361999779,360.9778361999779,360.9778361999779,2,1,0.7977508000331,None,360.9778361999779,361.47689589997754,,,,,,,,Sabrina_ZB216,001,2024-02-27_17h13.56.023,stroop-master,2023.1.3,60.154717943159035,
4,綠,blue,紅,0,0,2,5,0,5,0,0,11,11,8,,,,,,,,,,,,31,361.47689589997754,361.576654399978,361.576654399978,363.47150709998095,363.47150709998095,363.47150709998095,2,1,1.3276430999976583,None,,,,,,,,,,Sabrina_ZB216,001,2024-02-27_17h13.56.023,stroop-master,2023.1.3,60.154717943159035,
,,,,,,,5,0,5,0,,,,,,,,,,,,,,,,,,,,,,,,,,,,,363.47150709998095,393.42602249997435,,,,,,Sabrina_ZB216,001,2024-02-27_17h13.56.023,stroop-master,2023.1.3,60.154717943159035,
3,藍,blue,黃,1,0,2,6,0,6,0,0,0,0,2,,,,,,,,393.42602249997435,395.421127300011,395.421127300011,395.93581679998897,3,395.93581679998897,396.0195154999965,396.0195154999965,397.91468069999246,397.91468069999246,397.91468069999246,2,1,1.0000352999777533,None,397.91468069999246,398.41302670002915,,,,,,,,Sabrina_ZB216,001,2024-02-27_17h13.56.023,stroop-master,2023.1.3,60.154717943159035,
1,藍,blue,藍,1,1,1,6,0,6,0,0,1,1,1,,,,,,,,,,,,1,398.41302670002915,398.51290999999037,398.51290999999037,400.4077437000233,400.4077437000233,400.4077437000233,1,1,0.6375758000067435,None,400.4077437000233,400.9063894000137,,,,,,,,Sabrina_ZB216,001,2024-02-27_17h13.56.023,stroop-master,2023.1.3,60.154717943159035,
3,紅,red,藍,1,0,2,6,0,6,0,0,2,2,8,,,,,,,,,,,,20,400.9063894000137,401.00660020002397,401.00660020002397,402.90142539999215,402.90142539999215,402.90142539999215,2,1,0.6686433000140823,None,402.90142539999215,403.4001906000194,,,,,,,,Sabrina_ZB216,001,2024-02-27_17h13.56.023,stroop-master,2023.1.3,60.154717943159035,
1,紅,red,紅,1,1,1,6,0,6,0,0,3,3,10,,,,,,,,,,,,23,403.4001906000194,403.4996690999833,403.4996690999833,405.3947545000119,405.3947545000119,405.3947545000119,1,1,0.5836367000010796,None,405.3947545000119,405.89337230002275,,,,,,,,Sabrina_ZB216,001,2024-02-27_17h13.56.023,stroop-master,2023.1.3,60.154717943159035,
3,藍,blue,黃,1,0,2,6,0,6,0,0,4,4,9,,,,,,,,,,,,1,405.89337230002275,405.99315569998,405.99315569998,407.888334200019,407.888334200019,407.888334200019,2,1,0.649894000031054,None,407.888334200019,408.38715540000703,,,,,,,,Sabrina_ZB216,001,2024-02-27_17h13.56.023,stroop-master,2023.1.3,60.154717943159035,
1,黃,yellow,黃,1,1,1,6,0,6,0,0,5,5,11,,,,,,,,,,,,17,408.38715540000703,408.4869551000302,408.4869551000302,410.3819159999839,410.3819159999839,410.3819159999839,1,1,0.6208133000181988,None,410.3819159999839,410.8803790999809,,,,,,,,Sabrina_ZB216,001,2024-02-27_17h13.56.023,stroop-master,2023.1.3,60.154717943159035,
3,黃,yellow,綠,1,0,2,6,0,6,0,0,6,6,7,,,,,,,,,,,,3,410.8803790999809,410.9804366999888,410.9804366999888,412.8749888999737,412.8749888999737,412.8749888999737,2,1,0.8256479999981821,None,412.8749888999737,413.3741252999753,,,,,,,,Sabrina_ZB216,001,2024-02-27_17h13.56.023,stroop-master,2023.1.3,60.154717943159035,
1,藍,blue,藍,1,1,1,6,0,6,0,0,7,7,4,,,,,,,,,,,,24,413.3741252999753,413.4736639999901,413.4736639999901,415.3689653999754,415.3689653999754,415.3689653999754,1,1,0.5516026000259444,None,415.3689653999754,415.8672589000198,,,,,,,,Sabrina_ZB216,001,2024-02-27_17h13.56.023,stroop-master,2023.1.3,60.154717943159035,
3,紅,red,黃,1,0,2,6,0,6,0,0,8,8,5,,,,,,,,,,,,16,415.8672589000198,415.96694890002254,415.96694890002254,417.86233370000264,417.86233370000264,417.86233370000264,2,1,0.7776773000368848,None,417.86233370000264,418.3607405999792,,,,,,,,Sabrina_ZB216,001,2024-02-27_17h13.56.023,stroop-master,2023.1.3,60.154717943159035,
3,黃,yellow,藍,1,0,2,6,0,6,0,0,9,9,3,,,,,,,,,,,,20,418.3607405999792,418.460722799995,418.460722799995,420.3553447999875,420.3553447999875,420.3553447999875,2,1,0.8872476000105962,None,420.3553447999875,420.8543124999851,,,,,,,,Sabrina_ZB216,001,2024-02-27_17h13.56.023,stroop-master,2023.1.3,60.154717943159035,
1,綠,green,綠,1,1,1,6,0,6,0,0,10,10,0,,,,,,,,,,,,0,420.8543124999851,420.9541021999903,420.9541021999903,422.84890699997777,422.84890699997777,422.84890699997777,1,1,0.6422200999804772,None,422.84890699997777,423.34799939999357,,,,,,,,Sabrina_ZB216,001,2024-02-27_17h13.56.023,stroop-master,2023.1.3,60.154717943159035,
1,綠,green,綠,1,1,1,6,0,6,0,0,11,11,6,,,,,,,,,,,,2,423.34799939999357,423.44731600000523,423.44731600000523,425.34226559998933,425.34226559998933,425.34226559998933,1,1,0.6854231000179425,None,,,,,,,,,,Sabrina_ZB216,001,2024-02-27_17h13.56.023,stroop-master,2023.1.3,60.154717943159035,
,,,,,,,6,0,6,0,,,,,,,,,,,,,,,,,,,,,,,,,,,,,425.34226559998933,455.2974542999873,,,,,,Sabrina_ZB216,001,2024-02-27_17h13.56.023,stroop-master,2023.1.3,60.154717943159035,
5,的,blue,藍,0,1,1,7,0,7,0,0,0,0,4,,,,,,,,455.2974542999873,457.2917688000016,457.2917688000016,457.80614970001625,106,457.80614970001625,457.8907326000044,457.8907326000044,459.78550800000085,459.78550800000085,459.78550800000085,1,1,1.1136638000025414,None,459.78550800000085,460.28424050001195,,,,,,,,Sabrina_ZB216,001,2024-02-27_17h13.56.023,stroop-master,2023.1.3,60.154717943159035,
5,個,blue,藍,0,1,1,7,0,7,0,0,1,1,9,,,,,,,,,,,,86,460.28424050001195,460.38406720000785,460.38406720000785,462.27874049998354,462.27874049998354,462.27874049998354,1,1,0.6610330999828875,None,462.27874049998354,462.7778997999849,,,,,,,,Sabrina_ZB216,001,2024-02-27_17h13.56.023,stroop-master,2023.1.3,60.154717943159035,
6,個,green,紅,0,0,2,7,0,7,0,0,2,2,10,,,,,,,,,,,,91,462.7778997999849,462.87724280002294,462.87724280002294,464.7725394000299,464.7725394000299,464.7725394000299,2,1,1.0558656999492086,None,464.7725394000299,465.2712851000251,,,,,,,,Sabrina_ZB216,001,2024-02-27_17h13.56.023,stroop-master,2023.1.3,60.154717943159035,
6,的,blue,黃,0,0,2,7,0,7,0,0,3,3,8,,,,,,,,,,,,77,465.2712851000251,465.37103689997457,465.37103689997457,467.265666900028,467.265666900028,467.265666900028,2,1,0.8051390000036918,None,467.265666900028,467.76425780000864,,,,,,,,Sabrina_ZB216,001,2024-02-27_17h13.56.023,stroop-master,2023.1.3,60.154717943159035,
5,到,yellow,黃,0,1,1,7,0,7,0,0,4,4,11,,,,,,,,,,,,73,467.76425780000864,467.8641020000214,467.8641020000214,469.7594715000014,469.7594715000014,469.7594715000014,1,1,0.6154570000362583,None,469.7594715000014,470.257831200026,,,,,,,,Sabrina_ZB216,001,2024-02-27_17h13.56.023,stroop-master,2023.1.3,60.154717943159035,
6,的,blue,綠,0,0,2,7,0,7,0,0,5,5,0,,,,,,,,,,,,71,470.257831200026,470.3579219999956,470.3579219999956,472.252866099996,472.252866099996,472.252866099996,2,1,0.9824984999722801,None,472.252866099996,472.7515571999829,,,,,,,,Sabrina_ZB216,001,2024-02-27_17h13.56.023,stroop-master,2023.1.3,60.154717943159035,
5,的,red,紅,0,1,1,7,0,7,0,0,6,6,6,,,,,,,,,,,,72,472.7515571999829,472.851439399994,472.851439399994,474.7463441999862,474.7463441999862,474.7463441999862,1,1,0.608105199993588,None,474.7463441999862,475.245165499975,,,,,,,,Sabrina_ZB216,001,2024-02-27_17h13.56.023,stroop-master,2023.1.3,60.154717943159035,
6,並,red,綠,0,0,2,7,0,7,0,0,7,7,2,,,,,,,,,,,,98,475.245165499975,475.344516800018,475.344516800018,477.23981900000945,477.23981900000945,477.23981900000945,2,1,1.2519390999805182,None,477.23981900000945,477.7386062000296,,,,,,,,Sabrina_ZB216,001,2024-02-27_17h13.56.023,stroop-master,2023.1.3,60.154717943159035,
5,個,blue,藍,0,1,1,7,0,7,0,0,8,8,3,,,,,,,,,,,,105,477.7386062000296,477.83804160001455,477.83804160001455,479.7330376000027,479.7330376000027,479.7330376000027,1,1,0.8396493999753147,None,479.7330376000027,480.2318899999955,,,,,,,,Sabrina_ZB216,001,2024-02-27_17h13.56.023,stroop-master,2023.1.3,60.154717943159035,
5,到,green,綠,0,1,1,7,0,7,0,0,9,9,5,,,,,,,,,,,,77,480.2318899999955,480.3317206000211,480.3317206000211,482.2267357999808,482.2267357999808,482.2267357999808,2,0,1.8336818999960087,None,482.2267357999808,482.7254930000054,,,,,,,,Sabrina_ZB216,001,2024-02-27_17h13.56.023,stroop-master,2023.1.3,60.154717943159035,
6,到,green,紅,0,0,2,7,0,7,0,0,10,10,7,,,,,,,,,,,,122,482.7254930000054,482.8252561999834,482.8252561999834,484.72004819998983,484.72004819998983,484.72004819998983,2,1,1.1640848999959417,None,484.72004819998983,485.2184845000156,,,,,,,,Sabrina_ZB216,001,2024-02-27_17h13.56.023,stroop-master,2023.1.3,60.154717943159035,
6,並,green,紅,0,0,2,7,0,7,0,0,11,11,1,,,,,,,,,,,,70,485.2184845000156,485.3186641000211,485.3186641000211,487.21369020000566,487.21369020000566,487.21369020000566,None,0,,,,,,,,,,,,Sabrina_ZB216,001,2024-02-27_17h13.56.023,stroop-master,2023.1.3,60.154717943159035,
,,,,,,,7,0,7,0,,,,,,,,,,,,,,,,,,,,,,,,,,,,,487.21369020000566,517.1680899999919,,,,,,Sabrina_ZB216,001,2024-02-27_17h13.56.023,stroop-master,2023.1.3,60.154717943159035,
1,紅,red,紅,1,1,1,8,0,8,0,0,0,0,8,,,,,,,,517.1680899999919,519.1630507999798,519.1630507999798,519.6753203999833,16,519.6753203999833,519.7615082000266,519.7615082000266,521.6565626999945,521.6565626999945,521.6565626999945,1,1,0.7310543000348844,None,521.6565626999945,522.1549950999906,,,,,,,,Sabrina_ZB216,001,2024-02-27_17h13.56.023,stroop-master,2023.1.3,60.154717943159035,
1,黃,yellow,黃,1,1,1,8,0,8,0,0,1,1,2,,,,,,,,,,,,26,522.1549950999906,522.2550779000157,522.2550779000157,524.1498111999827,524.1498111999827,524.1498111999827,1,1,0.7563683000043966,None,524.1498111999827,524.6486856000265,,,,,,,,Sabrina_ZB216,001,2024-02-27_17h13.56.023,stroop-master,2023.1.3,60.154717943159035,
1,紅,red,紅,1,1,1,8,0,8,0,0,2,2,6,,,,,,,,,,,,2,524.6486856000265,524.7480826000101,524.7480826000101,526.6435484000249,526.6435484000249,526.6435484000249,1,1,0.5753646999946795,None,526.6435484000249,527.1419745999738,,,,,,,,Sabrina_ZB216,001,2024-02-27_17h13.56.023,stroop-master,2023.1.3,60.154717943159035,
1,紅,red,紅,1,1,1,8,0,8,0,0,3,3,11,,,,,,,,,,,,1,527.1419745999738,527.2420160999754,527.2420160999754,529.1366407999885,529.1366407999885,529.1366407999885,1,1,0.43173390004085377,None,529.1366407999885,529.6356652000104,,,,,,,,Sabrina_ZB216,001,2024-02-27_17h13.56.023,stroop-master,2023.1.3,60.154717943159035,
1,黃,yellow,黃,1,1,1,8,0,8,0,0,4,4,5,,,,,,,,,,,,16,529.6356652000104,529.7351247000042,529.7351247000042,531.6302638999769,531.6302638999769,531.6302638999769,1,1,0.707407100009732,None,531.6302638999769,532.1287024000194,,,,,,,,Sabrina_ZB216,001,2024-02-27_17h13.56.023,stroop-master,2023.1.3,60.154717943159035,
3,紅,red,黃,1,0,2,8,0,8,0,0,5,5,10,,,,,,,,,,,,2,532.1287024000194,532.2285676000174,532.2285676000174,534.1238824999891,534.1238824999891,534.1238824999891,2,1,0.7706743000308052,None,534.1238824999891,534.6222398999962,,,,,,,,Sabrina_ZB216,001,2024-02-27_17h13.56.023,stroop-master,2023.1.3,60.154717943159035,
3,紅,red,藍,1,0,2,8,0,8,0,0,6,6,4,,,,,,,,,,,,0,534.6222398999962,534.7220863000257,534.7220863000257,536.6172566000023,536.6172566000023,536.6172566000023,2,1,1.1236267000203952,None,536.6172566000023,537.1156854000292,,,,,,,,Sabrina_ZB216,001,2024-02-27_17h13.56.023,stroop-master,2023.1.3,60.154717943159035,
3,藍,blue,黃,1,0,2,8,0,8,0,0,7,7,7,,,,,,,,,,,,20,537.1156854000292,537.2154689999879,537.2154689999879,539.1109205000103,539.1109205000103,539.1109205000103,2,1,1.5127110999892466,None,539.1109205000103,539.609399900015,,,,,,,,Sabrina_ZB216,001,2024-02-27_17h13.56.023,stroop-master,2023.1.3,60.154717943159035,
1,藍,blue,藍,1,1,1,8,0,8,0,0,8,8,3,,,,,,,,,,,,0,539.609399900015,539.7094075999921,539.7094075999921,541.6042295999941,541.6042295999941,541.6042295999941,1,1,0.665420199977234,None,541.6042295999941,542.1029918999993,,,,,,,,Sabrina_ZB216,001,2024-02-27_17h13.56.023,stroop-master,2023.1.3,60.154717943159035,
3,紅,red,藍,1,0,2,8,0,8,0,0,9,9,9,,,,,,,,,,,,16,542.1029918999993,542.2025930000236,542.2025930000236,544.0977652000147,544.0977652000147,544.0977652000147,2,1,1.7796827999991365,None,544.0977652000147,544.5964381999802,,,,,,,,Sabrina_ZB216,001,2024-02-27_17h13.56.023,stroop-master,2023.1.3,60.154717943159035,
3,綠,green,藍,1,0,2,8,0,8,0,0,10,10,1,,,,,,,,,,,,17,544.5964381999802,544.6960704000085,544.6960704000085,546.5909130999935,546.5909130999935,546.5909130999935,None,0,,,546.5909130999935,547.0897674000007,,,,,,,,Sabrina_ZB216,001,2024-02-27_17h13.56.023,stroop-master,2023.1.3,60.154717943159035,
3,紅,red,藍,1,0,2,8,0,8,0,0,11,11,0,,,,,,,,,,,,0,547.0897674000007,547.1897665000288,547.1897665000288,549.0845721000223,549.0845721000223,549.0845721000223,2,1,0.7215387000469491,None,,,,,,,,,,Sabrina_ZB216,001,2024-02-27_17h13.56.023,stroop-master,2023.1.3,60.154717943159035,
,,,,,,,8,0,8,0,,,,,,,,,,,,,,,,,,,,,,,,,,,,,549.0845721000223,579.0394274999853,,,,,,Sabrina_ZB216,001,2024-02-27_17h13.56.023,stroop-master,2023.1.3,60.154717943159035,
,,,,,,,,,,,,,,,,,,,,,,,,,,,,,,,,,,,,,,,,,579.0394274999853,579.0394274999853,q,4.046781800047029,None,Sabrina_ZB216,001,2024-02-27_17h13.56.023,stroop-master,2023.1.3,60.154717943159035,
